Time, Baro, TempC, TempF, BaroCal, AltiM, AltiF, AccelX, AccelY, AccelZ, GyroX, GyroY, GyroZ, MagX, MagY, MagZ, LAccX, LAccY, LAccZ, GravX, GravY, GravZ, RotTheta, RotI, RotJ, RotK, GeoRotTheta, GeoRotI, GeoRotJ, GeoRotK, GameRotTheta, GameRotI, GameRotJ, GameRotK10.42, 876.41, 23.42, 74.15, 0.00, 1207.22, 3960.71, 0.00, 0.00, 0.00, 0.00, 0.00, 0.00, 0.00, 0.00, 0.00, 0.00, 0.00, 0.00, 0.00, 0.00, 0.00, 0.00, 0.00, 0.00, 0.00, 0.00, 0.00, 0.00, 0.00, 0.00, 0.00, 0.00, 0.00, 
10.51, 810.50, 23.63, 74.53, 0.00, 1844.00, 6049.87, 0.00, 0.00, 0.00, 0.00, 0.00, 0.00, 0.00, 0.00, 0.00, 0.00, 0.00, 0.00, 0.00, 0.00, 0.00, 0.00, 0.00, 0.00, 0.00, 0.00, 0.00, 0.00, 0.00, 0.00, 0.00, 0.00, 0.00, 
10.58, 810.51, 23.63, 74.54, 0.00, 1843.91, 6049.58, 0.00, 0.00, 0.00, 0.00, 0.00, 0.00, 0.00, 0.00, 0.00, 0.00, 0.00, 0.00, 0.00, 0.00, 0.00, 0.00, 0.00, 0.00, 0.00, 0.00, 0.00, 0.00, 0.00, 0.00, 0.00, 0.00, 0.00, 
10.65, 810.50, 23.64, 74.55, 0.00, 1843.99, 6049.84, 0.00, 0.00, 0.00, 0.00, 0.00, 0.00, 0.00, 0.00, 0.00, 0.00, 0.00, 0.00, 0.00, 0.00, 0.00, 0.00, 0.00, 0.00, 0.00, 0.00, 0.00, 0.00, 0.00, 1.00, -0.00, -0.01, -0.00, 
10.71, 810.50, 23.65, 74.57, 0.00, 1844.02, 6049.94, 0.00, 0.00, 0.00, 0.00, 0.00, 0.00, 0.00, 0.00, 0.00, 0.00, 0.00, 0.00, 0.00, 0.00, 0.00, 0.00, 0.00, 0.00, 0.00, 0.00, 0.00, 0.00, 0.00, 1.00, -0.00, -0.01, -0.00, 
10.79, 810.49, 23.66, 74.59, 0.00, 1844.09, 6050.16, 0.00, 0.00, 0.00, 0.00, 0.00, 0.00, 0.00, 0.00, 0.00, 0.00, 0.00, 0.00, 0.00, 0.00, 0.00, 0.00, 0.00, 0.00, 0.00, 0.00, 0.00, 0.00, 0.00, 1.00, -0.00, -0.01, -0.00, 
10.85, 810.50, 23.67, 74.60, 0.00, 1844.03, 6049.98, 0.00, 0.00, 0.00, 0.00, 0.00, 0.00, 0.00, 0.00, 0.00, 0.00, 0.00, 0.00, 0.00, 0.00, 0.00, 0.00, 0.00, 0.00, 0.00, 0.00, 0.00, 0.00, 0.00, 1.00, -0.00, -0.01, -0.00, 
10.93, 810.49, 23.67, 74.61, 0.00, 1844.09, 6050.16, 0.00, 0.00, 0.00, 0.00, 0.00, 0.00, 0.00, 0.00, 0.00, 0.00, 0.00, 0.00, 0.00, 0.00, 0.00, 0.00, 0.00, 0.00, 0.00, 0.00, 0.00, 0.00, 0.00, 1.00, -0.00, -0.01, -0.00, 
10.99, 810.49, 23.68, 74.63, 0.00, 1844.11, 6050.23, 0.00, 0.00, 0.00, 0.00, 0.00, 0.00, 0.00, 0.00, 0.00, 0.00, 0.00, 0.00, 0.00, 0.00, 0.00, 0.00, 0.00, 0.00, 0.00, 0.00, 0.00, 0.00, 0.00, 1.00, -0.00, -0.01, -0.00, 
11.07, 810.49, 23.69, 74.63, 0.00, 1844.13, 6050.30, 0.00, 0.00, 0.00, 0.00, 0.00, 0.00, 0.00, 0.00, 0.00, 0.00, 0.00, 0.00, 0.00, 0.00, 0.00, 0.00, 0.00, 0.00, 0.00, 0.00, 0.00, 0.00, 0.00, 1.00, -0.00, -0.01, 0.00, 
11.12, 810.49, 23.69, 74.64, 0.00, 1844.15, 6050.37, 0.00, 0.00, 0.00, 0.00, 0.00, 0.00, 0.00, 0.00, 0.00, 0.00, 0.00, 0.00, 0.00, 0.00, 0.00, 0.00, 0.00, 0.00, 0.00, 0.00, 0.00, 0.00, 0.00, 1.00, -0.00, -0.01, 0.00, 
11.20, 810.50, 23.69, 74.65, 0.00, 1844.06, 6050.07, 0.00, 0.00, 0.00, 0.00, 0.00, 0.00, 0.00, 0.00, 0.00, 0.00, 0.00, 0.00, 0.00, 0.00, 0.00, 0.00, 0.00, 0.00, 0.00, 0.00, 0.00, 0.00, 0.00, 1.00, -0.00, -0.01, 0.00, 
11.26, 810.50, 23.70, 74.66, 0.00, 1844.06, 6050.08, 0.00, 0.00, 0.00, 0.00, 0.00, 0.00, 0.00, 0.00, 0.00, 0.00, 0.00, 0.00, 0.00, 0.00, 0.00, 0.00, 0.00, 0.00, 0.00, 0.00, 0.00, 0.00, 0.00, 1.00, -0.00, -0.01, 0.00, 
11.34, 810.50, 23.70, 74.66, 0.00, 1844.07, 6050.10, 0.19, 0.11, 9.73, 0.00, 0.00, 0.00, 0.00, 0.00, 0.00, 0.00, 0.00, 0.00, 0.00, 0.00, 0.00, 0.00, 0.00, 0.00, 0.00, 0.00, 0.00, 0.00, 0.00, 1.00, -0.00, -0.01, 0.00, 
11.40, 810.51, 23.70, 74.66, 0.00, 1843.97, 6049.78, 0.19, 0.11, 9.73, 0.00, 0.00, 0.00, 0.00, 0.00, 0.00, 0.00, 0.00, 0.00, 0.00, 0.00, 0.00, 0.00, 0.00, 0.00, 0.00, 0.00, 0.00, 0.00, 0.00, 1.00, -0.00, -0.01, 0.00, 
11.48, 810.51, 23.70, 74.66, 0.00, 1843.93, 6049.64, 0.19, 0.11, 9.73, 0.00, 0.00, 0.00, 0.00, 0.00, 0.00, -0.50, 0.20, 0.09, 0.00, 0.00, 0.00, 0.00, 0.00, 0.00, 0.00, 0.00, 0.00, 0.00, 0.00, 1.00, -0.00, -0.01, 0.00, 
11.54, 810.50, 23.70, 74.67, 0.00, 1844.05, 6050.02, 0.19, 0.11, 9.73, 0.00, 0.00, 0.00, 0.00, 0.00, 0.00, -0.50, 0.20, 0.09, 0.00, 0.00, 0.00, 0.00, 0.00, 0.00, 0.00, 0.00, 0.00, 0.00, 0.00, 1.00, -0.00, -0.01, 0.00, 
11.62, 810.50, 23.70, 74.67, 0.00, 1844.08, 6050.12, 0.19, 0.11, 9.73, 0.00, 0.00, 0.00, 0.00, 0.00, 0.00, -0.50, 0.20, 0.09, 0.10, 0.04, 9.60, 0.00, 0.00, 0.00, 0.00, 0.00, 0.00, 0.00, 0.00, 1.00, -0.00, -0.01, 0.00, 
11.68, 810.47, 23.71, 74.67, 0.00, 1844.33, 6050.95, 0.19, 0.11, 9.73, 0.00, 0.00, 0.00, 0.00, 0.00, 0.00, -0.50, 0.20, 0.09, 0.10, 0.04, 9.60, 0.00, 0.00, 0.00, 0.00, 0.00, 0.00, 0.00, 0.00, 1.00, -0.00, -0.01, 0.00, 
11.75, 810.46, 23.71, 74.67, 0.00, 1844.43, 6051.28, 0.84, 0.38, 9.54, 0.00, 0.00, 0.00, 0.00, 0.00, 0.00, -0.50, 0.20, 0.09, 0.10, 0.04, 9.60, 0.00, 0.00, 0.00, 0.00, 0.00, 0.00, 0.00, 0.00, 1.00, -0.00, -0.01, 0.00, 
11.82, 810.45, 23.71, 74.67, 0.00, 1844.48, 6051.45, 0.84, 0.38, 9.54, 0.00, 0.00, 0.00, 0.00, 0.00, 0.00, -0.50, 0.20, 0.09, 0.10, 0.04, 9.60, 0.00, 0.00, 0.00, 0.00, 0.00, 0.00, 0.00, 0.00, 1.00, -0.00, -0.01, 0.00, 
11.89, 810.44, 23.71, 74.67, 0.00, 1844.58, 6051.78, 0.84, 0.38, 9.54, 0.00, 0.00, 0.00, 0.00, 0.00, 0.00, -0.50, 0.20, 0.09, 0.10, 0.04, 9.60, 0.00, 0.00, 0.00, 0.00, 0.00, 0.00, 0.00, 0.00, 1.00, -0.00, -0.01, 0.00, 
11.95, 810.45, 23.71, 74.67, 0.00, 1844.48, 6051.44, 0.84, 0.38, 9.54, 0.00, 0.00, 0.00, 0.00, 0.00, 0.00, -0.50, 0.20, 0.09, 0.10, 0.04, 9.60, 0.00, 0.00, 0.00, 0.00, 0.00, 0.00, 0.00, 0.00, 1.00, -0.00, -0.01, 0.00, 
12.03, 810.46, 23.71, 74.67, 0.00, 1844.45, 6051.36, 0.84, 0.38, 9.54, -0.02, 0.01, 0.04, 0.00, 0.00, 0.00, -0.50, 0.20, 0.09, 0.10, 0.04, 9.60, 0.00, 0.00, 0.00, 0.00, 0.00, 0.00, 0.00, 0.00, 1.00, -0.00, -0.01, 0.00, 
12.09, 810.46, 23.71, 74.67, 0.00, 1844.42, 6051.26, 0.84, 0.38, 9.54, -0.02, 0.01, 0.04, 0.00, 0.00, 0.00, -0.50, 0.20, 0.09, 0.09, 0.07, 9.61, 0.00, 0.00, 0.00, 0.00, 0.00, 0.00, 0.00, 0.00, 1.00, -0.00, -0.01, 0.00, 
12.17, 810.45, 23.71, 74.67, 0.00, 1844.49, 6051.49, 0.84, 0.38, 9.54, -0.02, 0.01, 0.04, -18.06, -10.50, -39.06, -0.50, 0.20, 0.09, 0.09, 0.07, 9.61, 0.00, 0.00, 0.00, 0.00, 0.00, 0.00, 0.00, 0.00, 1.00, -0.00, -0.01, 0.00, 
12.23, 810.46, 23.71, 74.67, 0.00, 1844.40, 6051.19, 0.84, 0.38, 9.54, -0.00, 0.01, 0.06, -18.06, -10.50, -39.06, -0.50, 0.20, 0.09, 0.09, 0.07, 9.61, 0.00, 0.00, 0.00, 0.00, 0.00, 0.00, 0.00, 0.00, 1.00, -0.00, -0.01, 0.00, 
12.31, 810.46, 23.71, 74.67, 0.00, 1844.47, 6051.42, 0.84, 0.38, 9.54, -0.00, 0.01, 0.06, -18.06, -10.50, -39.06, -0.50, 0.20, 0.09, 0.05, 0.07, 9.62, 0.00, 0.00, 0.00, 0.00, 0.00, 0.00, 0.00, 0.00, 1.00, -0.00, -0.01, 0.00, 
12.36, 810.45, 23.71, 74.67, 0.00, 1844.56, 6051.71, 0.84, 0.38, 9.54, -0.00, 0.01, 0.06, -18.06, -10.50, -39.06, -0.50, 0.20, 0.09, 0.05, 0.07, 9.62, 0.00, 0.00, 0.00, 0.00, 0.00, 0.00, 0.00, 0.00, 1.00, -0.00, -0.01, 0.00, 
12.44, 810.45, 23.71, 74.67, 0.00, 1844.50, 6051.50, 0.23, -0.15, 9.65, -0.00, 0.01, 0.06, -18.06, -10.50, -39.06, -0.50, 0.20, 0.09, 0.05, 0.07, 9.62, 0.00, 0.00, 0.00, 0.00, 0.00, 0.00, 0.00, 0.00, 1.00, -0.00, -0.01, 0.00, 
12.50, 810.45, 23.71, 74.67, 0.00, 1844.51, 6051.53, 0.23, -0.15, 9.65, -0.00, 0.01, 0.06, -18.06, -10.50, -39.06, -0.50, 0.20, 0.09, 0.05, 0.07, 9.62, 0.00, 0.00, 0.00, 0.00, 0.00, 0.00, 0.00, 0.00, 1.00, -0.00, -0.01, 0.00, 
12.58, 810.46, 23.71, 74.67, 0.00, 1844.38, 6051.13, 0.34, -0.23, 9.88, -0.00, 0.01, 0.06, -18.06, -10.50, -39.06, -0.50, 0.20, 0.09, 0.05, 0.07, 9.62, 0.00, 0.00, 0.00, 0.00, 0.00, 0.00, 0.00, 0.00, 1.00, -0.00, -0.01, 0.00, 
12.64, 810.47, 23.71, 74.67, 0.00, 1844.31, 6050.89, 0.34, -0.23, 9.88, -0.00, 0.01, 0.06, -18.06, -10.50, -39.06, -0.50, 0.20, 0.09, 0.05, 0.07, 9.62, 0.49, -0.01, -0.00, -0.87, 0.00, 0.00, 0.00, 0.00, 1.00, -0.00, -0.01, 0.00, 
12.71, 810.47, 23.71, 74.67, 0.00, 1844.28, 6050.80, 0.34, -0.23, 9.88, -0.00, 0.01, 0.06, -18.06, -10.50, -39.06, -0.50, 0.20, 0.09, 0.05, 0.07, 9.62, 0.49, -0.01, -0.00, -0.87, 0.00, 0.00, 0.00, 0.00, 1.00, -0.00, -0.01, 0.00, 
12.78, 810.47, 23.71, 74.67, 0.00, 1844.29, 6050.82, 0.34, -0.23, 9.88, -0.00, 0.01, 0.06, -18.06, -10.50, -39.06, -0.50, 0.20, 0.09, 0.06, 0.07, 9.63, 0.49, -0.01, -0.00, -0.87, 0.00, 0.00, 0.00, 0.00, 1.00, -0.00, -0.01, 0.00, 
12.85, 810.49, 23.70, 74.67, 0.00, 1844.15, 6050.37, -0.50, -0.27, 9.80, -0.00, 0.01, 0.06, -18.06, -10.50, -39.06, -0.50, 0.20, 0.09, 0.06, 0.07, 9.63, 0.49, -0.01, -0.00, -0.87, 0.00, 0.00, 0.00, 0.00, 1.00, -0.00, -0.01, 0.00, 
12.91, 810.50, 23.71, 74.67, 0.00, 1844.02, 6049.94, -0.50, -0.27, 9.80, -0.00, 0.01, 0.06, -18.06, -10.50, -39.06, -0.50, 0.20, 0.09, 0.06, 0.07, 9.63, 0.49, -0.01, -0.00, -0.87, 0.00, 0.00, 0.00, 0.00, 1.00, -0.00, -0.01, 0.00, 
12.99, 810.51, 23.71, 74.67, 0.00, 1843.97, 6049.78, -0.50, -0.27, 9.80, -0.01, 0.02, -0.11, -18.06, -10.50, -39.06, -0.50, 0.20, 0.09, 0.06, 0.07, 9.63, 0.49, -0.01, -0.00, -0.87, 0.00, 0.00, 0.00, 0.00, 1.00, -0.00, -0.01, 0.00, 
13.05, 810.50, 23.71, 74.67, 0.00, 1844.07, 6050.09, -0.54, -0.27, 9.58, -0.01, 0.02, -0.11, -18.06, -10.50, -39.06, -0.50, 0.20, 0.09, 0.06, 0.07, 9.63, 0.49, -0.01, -0.00, -0.87, 0.00, 0.00, 0.00, 0.00, 1.00, -0.00, -0.01, 0.00, 
13.13, 810.50, 23.71, 74.67, 0.00, 1844.01, 6049.92, -0.54, -0.27, 9.58, -0.01, 0.02, -0.11, -18.06, -10.50, -39.06, -0.50, 0.20, 0.09, 0.06, 0.07, 9.63, 0.49, -0.01, -0.00, -0.87, 0.00, 0.00, 0.00, 0.00, 1.00, 0.00, -0.00, 0.00, 
13.18, 810.51, 23.71, 74.67, 0.00, 1843.93, 6049.65, -0.54, -0.27, 9.58, 0.01, -0.02, -0.07, -18.06, -10.50, -39.06, -0.50, 0.20, 0.09, 0.06, 0.07, 9.63, 0.49, -0.01, -0.00, -0.87, 0.00, 0.00, 0.00, 0.00, 1.00, 0.00, -0.00, 0.00, 
13.27, 810.52, 23.71, 74.67, 0.00, 1843.84, 6049.34, -0.54, -0.27, 9.58, 0.01, -0.02, -0.07, -18.06, -10.50, -39.06, -0.50, 0.20, 0.09, 0.06, 0.07, 9.63, 0.49, -0.01, -0.00, -0.87, 0.00, 0.00, 0.00, 0.00, 1.00, 0.00, -0.00, 0.00, 
13.32, 810.51, 23.71, 74.67, 0.00, 1843.92, 6049.60, 0.38, -0.19, 9.61, 0.01, -0.02, -0.07, -18.06, -10.50, -39.06, -0.50, 0.20, 0.09, 0.06, 0.07, 9.63, 0.49, -0.01, -0.00, -0.87, 0.00, 0.00, 0.00, 0.00, 1.00, 0.00, -0.00, 0.00, 
13.40, 810.50, 23.71, 74.67, 0.00, 1844.03, 6049.96, 0.38, -0.19, 9.61, -0.00, 0.03, -0.02, -18.06, -10.50, -39.06, -0.50, 0.20, 0.09, 0.06, 0.07, 9.63, 0.49, -0.01, -0.00, -0.87, 0.00, 0.00, 0.00, 0.00, 1.00, 0.00, -0.00, 0.00, 
13.46, 810.50, 23.71, 74.67, 0.00, 1844.02, 6049.93, 0.38, -0.19, 9.61, -0.00, 0.03, -0.02, -18.06, -10.50, -39.06, -0.50, 0.20, 0.09, 0.05, 0.07, 9.63, 0.49, -0.01, -0.00, -0.87, 0.00, 0.00, 0.00, 0.00, 1.00, 0.00, -0.00, 0.00, 
13.54, 810.50, 23.71, 74.67, 0.00, 1843.99, 6049.84, 0.19, -0.19, 9.46, -0.00, 0.03, -0.02, -18.06, -10.50, -39.06, -0.50, 0.20, 0.09, 0.05, 0.07, 9.63, 0.49, -0.01, -0.00, -0.87, 0.00, 0.00, 0.00, 0.00, 1.00, 0.00, -0.00, 0.00, 
13.60, 810.49, 23.71, 74.67, 0.00, 1844.15, 6050.35, 0.19, -0.19, 9.46, -0.03, -0.01, 0.04, -18.06, -10.50, -39.06, -0.50, 0.20, 0.09, 0.05, 0.07, 9.63, 0.49, -0.01, -0.00, -0.87, 0.00, 0.00, 0.00, 0.00, 1.00, 0.00, -0.00, 0.00, 
13.68, 810.49, 23.71, 74.67, 0.00, 1844.11, 6050.24, 0.19, -0.19, 9.46, -0.03, -0.01, 0.04, -18.06, -10.50, -39.06, -0.50, 0.20, 0.09, 0.05, 0.07, 9.63, 0.49, -0.01, -0.00, -0.87, 0.00, 0.00, 0.00, 0.00, 1.00, 0.00, -0.00, 0.00, 
13.74, 810.49, 23.71, 74.67, 0.00, 1844.10, 6050.20, -0.92, 0.30, 9.77, -0.03, -0.01, 0.04, -18.06, -10.50, -39.06, -0.50, 0.20, 0.09, 0.05, 0.07, 9.63, 0.49, -0.01, -0.00, -0.87, 0.00, 0.00, 0.00, 0.00, 1.00, 0.00, -0.00, 0.00, 
13.82, 810.49, 23.71, 74.67, 0.00, 1844.14, 6050.33, -0.92, 0.30, 9.77, 0.01, 0.00, -0.07, -18.06, -10.50, -39.06, -0.50, 0.20, 0.09, 0.05, 0.07, 9.63, 0.49, -0.01, -0.00, -0.87, 0.00, 0.00, 0.00, 0.00, 1.00, 0.00, -0.00, 0.00, 
13.88, 810.48, 23.71, 74.67, 0.00, 1844.24, 6050.66, -0.92, 0.30, 9.77, -0.00, -0.01, -0.14, -18.06, -10.50, -39.06, -0.50, 0.20, 0.09, 0.05, 0.07, 9.63, 0.49, -0.01, -0.00, -0.87, 0.00, 0.00, 0.00, 0.00, 1.00, 0.00, -0.00, 0.00, 
13.95, 810.48, 23.71, 74.67, 0.00, 1844.27, 6050.76, -0.92, 0.30, 9.77, -0.00, -0.01, -0.14, -18.06, -10.50, -39.06, -0.50, 0.20, 0.09, 0.05, 0.07, 9.63, 0.49, -0.01, -0.00, -0.87, 0.00, 0.00, 0.00, 0.00, 1.00, 0.00, -0.00, 0.00, 
14.01, 810.49, 23.71, 74.67, 0.00, 1844.08, 6050.14, -0.92, 0.30, 9.77, -0.00, -0.01, -0.14, -18.06, -10.50, -39.06, -0.50, 0.20, 0.09, 0.05, 0.07, 9.63, 0.49, -0.01, -0.00, -0.87, 0.00, 0.00, 0.00, 0.00, 1.00, 0.00, -0.00, 0.00, 
14.09, 810.51, 23.71, 74.68, 0.00, 1843.91, 6049.56, -0.92, 0.30, 9.77, -0.00, -0.01, -0.14, -18.06, -10.50, -39.06, -0.50, 0.20, 0.09, 0.02, 0.05, 9.63, 0.49, -0.01, -0.00, -0.87, 0.00, 0.00, 0.00, 0.00, 1.00, 0.00, -0.00, 0.00, 
14.15, 810.50, 23.71, 74.68, 0.00, 1843.99, 6049.85, -0.92, 0.30, 9.77, 0.01, 0.04, 0.30, -18.06, -10.50, -39.06, -0.50, 0.20, 0.09, 0.02, 0.05, 9.63, 0.49, -0.01, -0.00, -0.87, 0.00, 0.00, 0.00, 0.00, 1.00, 0.00, -0.00, 0.00, 
14.23, 810.51, 23.71, 74.68, 0.00, 1843.94, 6049.66, -0.92, 0.30, 9.77, -0.00, 0.02, 0.08, -18.06, -10.50, -39.06, -0.50, 0.20, 0.09, 0.02, 0.05, 9.63, 0.49, -0.01, -0.00, -0.87, 0.00, 0.00, 0.00, 0.00, 1.00, 0.00, -0.00, 0.00, 
14.29, 810.50, 23.71, 74.68, 0.00, 1843.99, 6049.85, -0.92, 0.30, 9.77, -0.02, -0.05, 0.04, -18.06, -10.50, -39.06, -0.50, 0.20, 0.09, 0.02, 0.05, 9.63, 0.49, -0.01, -0.00, -0.87, 0.00, 0.00, 0.00, 0.00, 1.00, 0.00, -0.00, 0.00, 
14.37, 810.48, 23.71, 74.68, 0.00, 1844.22, 6050.60, -0.92, 0.30, 9.77, -0.02, -0.05, 0.04, -18.06, -10.50, -39.06, -0.50, 0.20, 0.09, 0.02, 0.05, 9.63, 0.49, -0.01, -0.00, -0.87, 0.00, 0.00, 0.00, 0.00, 1.00, 0.00, -0.00, 0.00, 
14.43, 810.48, 23.71, 74.68, 0.00, 1844.24, 6050.67, -0.92, 0.30, 9.77, 0.01, -0.00, 0.42, -18.06, -10.50, -39.06, -0.50, 0.20, 0.09, 0.02, 0.05, 9.63, 0.49, -0.01, -0.00, -0.87, 0.00, 0.00, 0.00, 0.00, 1.00, 0.00, -0.00, 0.00, 
14.50, 810.47, 23.71, 74.68, 0.00, 1844.33, 6050.96, -0.92, 0.30, 9.77, 0.01, -0.00, 0.42, -20.44, -8.06, -37.69, -0.50, 0.20, 0.09, 0.02, 0.05, 9.63, 0.49, -0.01, -0.00, -0.87, 0.00, 0.00, 0.00, 0.00, 1.00, 0.00, -0.00, 0.00, 
14.56, 810.47, 23.71, 74.68, 0.00, 1844.34, 6050.98, -0.08, 0.15, 9.73, 0.01, -0.00, 0.42, -20.44, -8.06, -37.69, -0.50, 0.20, 0.09, 0.02, 0.05, 9.63, 0.49, -0.01, -0.00, -0.87, 0.00, 0.00, 0.00, 0.00, 1.00, 0.00, -0.00, 0.00, 
14.64, 810.47, 23.71, 74.68, 0.00, 1844.28, 6050.80, -0.08, 0.15, 9.73, 0.01, -0.00, 0.42, -20.44, -8.06, -37.69, -0.50, 0.20, 0.09, 0.02, 0.05, 9.63, 0.49, -0.01, -0.00, -0.87, 0.00, 0.00, 0.00, 0.00, 1.00, 0.00, 0.00, 0.05, 
14.70, 810.48, 23.71, 74.68, 0.00, 1844.25, 6050.70, -0.08, 0.15, 9.73, -0.01, -0.04, -0.58, -20.44, -8.06, -37.69, -0.50, 0.20, 0.09, 0.02, 0.05, 9.63, 0.49, -0.01, -0.00, -0.87, 0.00, 0.00, 0.00, 0.00, 1.00, 0.00, 0.00, 0.05, 
14.78, 810.47, 23.71, 74.68, 0.00, 1844.37, 6051.10, -0.08, 0.15, 9.73, -0.01, -0.04, -0.58, -20.44, -8.06, -37.69, -0.50, 0.20, 0.09, 0.02, 0.05, 9.63, 0.49, -0.01, -0.00, -0.87, 0.00, 0.00, 0.00, 0.00, 1.00, 0.00, 0.00, 0.05, 
14.84, 810.47, 23.71, 74.69, 0.00, 1844.35, 6051.02, 0.54, -0.11, 9.73, -0.01, -0.04, -0.58, -20.44, -8.06, -37.69, -0.50, 0.20, 0.09, 0.02, 0.05, 9.63, 0.49, -0.01, -0.00, -0.87, 0.00, 0.00, 0.00, 0.00, 1.00, 0.00, 0.00, 0.05, 
14.92, 810.48, 23.71, 74.68, 0.00, 1844.23, 6050.62, 0.54, -0.11, 9.73, 0.02, 0.03, -0.00, -20.44, -8.06, -37.69, -0.50, 0.20, 0.09, 0.02, 0.05, 9.63, 0.49, -0.01, -0.00, -0.87, 0.00, 0.00, 0.00, 0.00, 1.00, 0.00, 0.00, 0.05, 
14.98, 810.49, 23.71, 74.69, 0.00, 1844.11, 6050.24, 0.54, -0.11, 9.73, 0.02, 0.03, -0.00, -20.44, -8.06, -37.69, -0.50, 0.20, 0.09, 0.02, 0.03, 9.63, 0.49, -0.01, -0.00, -0.87, 0.00, 0.00, 0.00, 0.00, 1.00, 0.00, 0.00, 0.05, 
15.06, 810.50, 23.71, 74.69, 0.00, 1844.04, 6050.01, -0.46, -0.57, 9.58, 0.02, 0.03, -0.00, -20.44, -8.06, -37.69, -0.50, 0.20, 0.09, 0.02, 0.03, 9.63, 0.49, -0.01, -0.00, -0.87, 0.00, 0.00, 0.00, 0.00, 1.00, 0.00, 0.00, 0.05, 
15.11, 810.50, 23.71, 74.69, 0.00, 1844.06, 6050.07, -0.46, -0.57, 9.58, -0.02, -0.01, -0.06, -20.44, -8.06, -37.69, -0.50, 0.20, 0.09, 0.02, 0.03, 9.63, 0.49, -0.01, -0.00, -0.87, 0.00, 0.00, 0.00, 0.00, 1.00, 0.00, 0.00, 0.05, 
15.20, 810.50, 23.72, 74.69, 0.00, 1844.07, 6050.11, -0.46, -0.57, 9.58, -0.02, -0.01, -0.06, -20.44, -8.06, -37.69, -0.50, 0.20, 0.09, 0.02, 0.03, 9.63, 0.49, -0.01, -0.00, -0.87, 0.00, 0.00, 0.00, 0.00, 1.00, 0.00, -0.00, 0.01, 
15.25, 810.50, 23.72, 74.69, 0.00, 1844.02, 6049.94, -0.46, -0.57, 9.58, -0.04, -0.03, 0.17, -20.44, -8.06, -37.69, -0.50, 0.20, 0.09, 0.02, 0.03, 9.63, 0.49, -0.01, -0.00, -0.87, 0.00, 0.00, 0.00, 0.00, 1.00, 0.00, -0.00, 0.01, 
15.33, 810.51, 23.71, 74.69, 0.00, 1843.91, 6049.57, -0.46, -0.57, 9.58, -0.04, -0.03, 0.17, -20.44, -8.06, -37.69, -0.50, 0.20, 0.09, 0.02, 0.03, 9.63, 0.49, -0.01, -0.00, -0.87, 0.00, 0.00, 0.00, 0.00, 1.00, 0.00, -0.00, 0.01, 
15.39, 810.52, 23.72, 74.69, 0.00, 1843.85, 6049.38, -0.46, -0.57, 9.58, -0.03, 0.03, 0.16, -20.44, -8.06, -37.69, -0.50, 0.20, 0.09, 0.02, 0.03, 9.63, 0.49, -0.01, -0.00, -0.87, 0.00, 0.00, 0.00, 0.00, 1.00, 0.00, -0.00, 0.01, 
15.47, 810.52, 23.72, 74.69, 0.00, 1843.85, 6049.37, 0.46, 0.38, 9.77, -0.03, 0.03, 0.16, -20.44, -8.06, -37.69, -0.50, 0.20, 0.09, 0.02, 0.03, 9.63, 0.49, -0.01, -0.00, -0.87, 0.00, 0.00, 0.00, 0.00, 1.00, 0.00, -0.00, 0.01, 
15.54, 810.53, 23.72, 74.69, 0.00, 1843.69, 6048.87, 0.46, 0.38, 9.77, -0.02, -0.02, 0.02, -20.44, -8.06, -37.69, -0.50, 0.20, 0.09, 0.02, 0.03, 9.63, 0.49, -0.01, -0.00, -0.87, 0.00, 0.00, 0.00, 0.00, 1.00, 0.00, -0.00, 0.01, 
15.62, 810.53, 23.72, 74.69, 0.00, 1843.73, 6048.97, 0.46, 0.38, 9.77, -0.02, -0.02, 0.02, -20.44, -8.06, -37.69, -0.50, 0.20, 0.09, 0.02, 0.03, 9.63, 0.49, -0.01, -0.00, -0.87, 0.00, 0.00, 0.00, 0.00, 1.00, -0.00, -0.00, 0.01, 
15.68, 810.53, 23.72, 74.69, 0.00, 1843.76, 6049.08, 0.46, 0.38, 9.77, -0.02, -0.02, 0.02, -18.81, -9.69, -38.94, -0.50, 0.20, 0.09, 0.02, 0.03, 9.63, 0.49, -0.01, -0.00, -0.87, 0.00, 0.00, 0.00, 0.00, 1.00, -0.00, -0.00, 0.01, 
15.76, 810.54, 23.71, 74.69, 0.00, 1843.66, 6048.75, 0.46, 0.38, 9.77, -0.02, -0.02, 0.02, -15.88, -14.75, -39.56, -0.50, 0.20, 0.09, 0.02, 0.03, 9.63, 0.49, -0.01, -0.00, -0.87, 0.00, 0.00, 0.00, 0.00, 1.00, -0.00, -0.00, 0.01, 
15.82, 810.54, 23.72, 74.69, 0.00, 1843.63, 6048.65, 0.46, 0.38, 9.77, -0.02, -0.02, 0.02, -15.88, -14.75, -39.56, -0.50, 0.20, 0.09, 0.22, 0.62, 9.63, 0.49, -0.01, -0.00, -0.87, 0.00, 0.00, 0.00, 0.00, 1.00, -0.00, -0.00, 0.01, 
15.89, 810.55, 23.72, 74.69, 0.00, 1843.57, 6048.46, 0.46, 0.38, 9.77, -0.02, -0.02, 0.02, -15.88, -14.75, -39.56, -0.50, 0.20, 0.09, 0.22, 0.62, 9.63, 0.56, -0.04, -0.03, -0.83, 0.00, 0.00, 0.00, 0.00, 1.00, -0.00, -0.00, 0.01, 
15.95, 810.53, 23.72, 74.69, 0.00, 1843.73, 6048.99, 0.46, 0.38, 9.77, -0.02, -0.02, 0.02, -15.88, -14.75, -39.56, -0.50, 0.20, 0.09, 0.22, 0.62, 9.63, 0.56, -0.04, -0.03, -0.83, 0.00, 0.00, 0.00, 0.00, 1.00, -0.00, -0.00, 0.01, 
16.03, 810.53, 23.72, 74.69, 0.00, 1843.75, 6049.05, -2.03, 1.65, 10.07, -0.02, -0.02, 0.02, -15.88, -14.75, -39.56, -0.50, 0.20, 0.09, 0.22, 0.62, 9.63, 0.56, -0.04, -0.03, -0.83, 0.00, 0.00, 0.00, 0.00, 1.00, -0.00, -0.00, 0.01, 
16.09, 810.53, 23.72, 74.69, 0.00, 1843.75, 6049.06, -2.03, 1.65, 10.07, -0.02, -0.02, 0.02, -15.88, -14.75, -39.56, -0.50, 0.20, 0.09, 0.22, 0.62, 9.63, 0.56, -0.04, -0.03, -0.83, 0.54, 0.04, 0.08, -0.84, 1.00, -0.00, -0.00, 0.01, 
16.17, 810.54, 23.72, 74.69, 0.00, 1843.63, 6048.67, -2.03, 1.65, 10.07, -0.02, -0.02, 0.02, -15.88, -14.75, -39.56, -0.50, 0.20, 0.09, 0.22, 0.62, 9.63, 0.56, -0.04, -0.03, -0.83, 0.54, 0.04, 0.08, -0.84, 1.00, -0.00, -0.00, 0.01, 
16.23, 810.55, 23.72, 74.70, 0.00, 1843.52, 6048.30, -2.03, 1.65, 10.07, -0.02, -0.02, 0.02, -15.88, -14.75, -39.56, -0.50, 0.20, 0.09, 0.22, 0.62, 9.63, 0.53, 0.02, -0.00, -0.85, 0.54, 0.04, 0.08, -0.84, 1.00, -0.00, -0.00, 0.01, 
16.31, 810.55, 23.72, 74.70, 0.00, 1843.53, 6048.32, -2.03, 1.65, 10.07, -0.02, -0.02, 0.02, -15.88, -14.75, -39.56, -0.50, 0.20, 0.09, 0.22, 0.62, 9.63, 0.53, 0.02, -0.00, -0.85, 0.54, 0.04, 0.08, -0.84, 1.00, 0.06, 0.05, 0.05, 
16.37, 810.55, 23.72, 74.70, 0.00, 1843.53, 6048.32, -2.03, 1.65, 10.07, -0.13, -0.59, 0.07, -15.88, -14.75, -39.56, -0.50, 0.20, 0.09, 0.22, 0.62, 9.63, 0.53, 0.02, -0.00, -0.85, 0.54, 0.04, 0.08, -0.84, 1.00, 0.06, 0.05, 0.05, 
16.44, 810.55, 23.72, 74.70, 0.00, 1843.53, 6048.31, -2.03, 1.65, 10.07, -0.13, -0.59, 0.07, -15.88, -14.75, -39.56, -0.50, 0.20, 0.09, 0.22, 0.62, 9.63, 0.53, 0.02, -0.00, -0.85, 0.54, 0.04, 0.08, -0.84, 1.00, 0.06, 0.05, 0.05, 
16.50, 810.56, 23.72, 74.70, 0.00, 1843.45, 6048.07, -2.03, 1.65, 10.07, 0.29, 0.10, 0.08, -15.88, -14.75, -39.56, -0.50, 0.20, 0.09, 0.22, 0.62, 9.63, 0.53, 0.02, -0.00, -0.85, 0.54, 0.04, 0.08, -0.84, 1.00, 0.06, 0.05, 0.05, 
16.58, 810.56, 23.72, 74.70, 0.00, 1843.42, 6047.98, -2.03, 1.65, 10.07, 0.29, 0.10, 0.08, -15.88, -14.75, -39.56, -0.50, 0.20, 0.09, -0.01, -0.10, 9.63, 0.53, 0.02, -0.00, -0.85, 0.54, 0.04, 0.08, -0.84, 1.00, 0.06, 0.05, 0.05, 
16.64, 810.56, 23.72, 74.70, 0.00, 1843.40, 6047.89, 0.57, -0.69, 8.92, 0.29, 0.10, 0.08, -15.88, -14.75, -39.56, -0.50, 0.20, 0.09, -0.01, -0.10, 9.63, 0.53, 0.02, -0.00, -0.85, 0.54, 0.04, 0.08, -0.84, 1.00, 0.06, 0.05, 0.05, 
16.72, 810.56, 23.72, 74.70, 0.00, 1843.40, 6047.89, 0.57, -0.69, 8.92, -0.04, -0.03, -0.57, -15.88, -14.75, -39.56, -0.50, 0.20, 0.09, -0.01, -0.10, 9.63, 0.53, 0.02, -0.00, -0.85, 0.54, 0.04, 0.08, -0.84, 1.00, 0.06, 0.05, 0.05, 
16.78, 810.56, 23.72, 74.70, 0.00, 1843.43, 6047.99, 0.57, -0.69, 8.92, -0.04, -0.03, -0.57, -20.56, -7.25, -39.13, -0.50, 0.20, 0.09, -0.01, -0.10, 9.63, 0.53, 0.02, -0.00, -0.85, 0.54, 0.04, 0.08, -0.84, 1.00, 0.06, 0.05, 0.05, 
16.86, 810.55, 23.72, 74.70, 0.00, 1843.56, 6048.42, 0.57, -0.69, 8.92, -0.04, -0.03, -0.57, -20.56, -7.25, -39.13, -0.50, 0.20, 0.09, -0.01, -0.10, 9.63, 0.53, 0.02, -0.00, -0.85, 0.54, 0.04, 0.08, -0.84, 1.00, 0.06, 0.05, 0.05, 
16.92, 810.52, 23.72, 74.70, 0.00, 1843.82, 6049.29, 0.57, -0.69, 8.92, -0.04, -0.03, -0.57, -20.56, -7.25, -39.13, -0.50, 0.20, 0.09, 0.03, -0.16, 9.63, 0.53, 0.02, -0.00, -0.85, 0.54, 0.04, 0.08, -0.84, 1.00, 0.06, 0.05, 0.05, 
17.00, 810.52, 23.72, 74.70, 0.00, 1843.80, 6049.22, 0.57, -0.69, 8.92, -0.04, -0.03, -0.57, -20.56, -7.25, -39.13, -0.50, 0.20, 0.09, 0.04, -0.13, 9.62, 0.53, 0.02, -0.00, -0.85, 0.54, 0.04, 0.08, -0.84, 1.00, 0.06, 0.05, 0.05, 
17.06, 810.52, 23.72, 74.70, 0.00, 1843.81, 6049.24, 0.57, -0.69, 8.92, 0.02, -0.04, -0.02, -20.56, -7.25, -39.13, -0.50, 0.20, 0.09, 0.04, -0.13, 9.62, 0.53, 0.02, -0.00, -0.85, 0.54, 0.04, 0.08, -0.84, 1.00, 0.06, 0.05, 0.05, 
17.13, 810.52, 23.72, 74.70, 0.00, 1843.86, 6049.41, 0.57, -0.69, 8.92, -0.02, 0.01, -0.09, -20.56, -7.25, -39.13, -0.50, 0.20, 0.09, 0.04, -0.13, 9.62, 0.53, 0.02, -0.00, -0.85, 0.54, 0.04, 0.08, -0.84, 1.00, 0.06, 0.05, 0.05, 
17.20, 810.53, 23.72, 74.70, 0.00, 1843.77, 6049.13, 0.57, -0.69, 8.92, -0.04, 0.03, 0.06, -20.56, -7.25, -39.13, -0.50, 0.20, 0.09, 0.04, -0.13, 9.62, 0.53, 0.02, -0.00, -0.85, 0.54, 0.04, 0.08, -0.84, 1.00, 0.06, 0.05, 0.05, 
17.27, 810.53, 23.72, 74.70, 0.00, 1843.74, 6049.03, 0.57, -0.69, 8.92, -0.04, 0.03, 0.06, -20.56, -7.25, -39.13, -0.50, 0.20, 0.09, 0.04, -0.13, 9.62, 0.53, 0.02, -0.00, -0.85, 0.56, 0.05, 0.09, -0.82, 1.00, 0.06, 0.05, 0.05, 
17.33, 810.53, 23.72, 74.70, 0.00, 1843.73, 6048.99, 0.04, -0.30, 9.73, -0.04, 0.03, 0.06, -20.56, -7.25, -39.13, -0.50, 0.20, 0.09, 0.04, -0.13, 9.62, 0.53, 0.02, -0.00, -0.85, 0.56, 0.05, 0.09, -0.82, 1.00, 0.06, 0.05, 0.05, 
17.41, 810.53, 23.72, 74.70, 0.00, 1843.69, 6048.86, 0.04, -0.30, 9.73, -0.04, 0.03, 0.06, -20.56, -7.25, -39.13, -0.50, 0.20, 0.09, 0.01, -0.17, 9.63, 0.53, 0.02, -0.00, -0.85, 0.56, 0.05, 0.09, -0.82, 1.00, 0.06, 0.05, 0.05, 
17.47, 810.53, 23.72, 74.70, 0.00, 1843.75, 6049.04, 0.04, -0.30, 9.73, 0.03, -0.02, -0.37, -20.56, -7.25, -39.13, -0.50, 0.20, 0.09, 0.01, -0.17, 9.63, 0.53, 0.02, -0.00, -0.85, 0.56, 0.05, 0.09, -0.82, 1.00, 0.06, 0.05, 0.05, 
17.55, 810.53, 23.72, 74.70, 0.00, 1843.70, 6048.87, 0.04, -0.30, 9.73, 0.03, -0.02, -0.37, -20.56, -7.25, -39.13, -0.50, 0.20, 0.09, 0.01, -0.17, 9.63, 0.53, 0.02, -0.00, -0.85, 0.56, 0.05, 0.09, -0.82, 1.00, 0.06, 0.05, 0.05, 
17.61, 810.54, 23.72, 74.70, 0.00, 1843.66, 6048.76, 0.04, -0.30, 9.73, -0.03, -0.00, 0.34, -20.56, -7.25, -39.13, -0.50, 0.20, 0.09, 0.01, -0.17, 9.63, 0.53, 0.02, -0.00, -0.85, 0.56, 0.05, 0.09, -0.82, 1.00, 0.06, 0.05, 0.05, 
17.68, 810.54, 23.72, 74.70, 0.00, 1843.59, 6048.53, 0.04, -0.30, 9.73, -0.03, -0.00, 0.34, -20.56, -7.25, -39.13, -0.50, 0.20, 0.09, 0.01, -0.17, 9.63, 0.53, 0.02, -0.00, -0.85, 0.56, 0.05, 0.09, -0.82, 1.00, 0.06, 0.05, 0.05, 
17.74, 810.56, 23.72, 74.70, 0.00, 1843.46, 6048.08, 0.23, -0.50, 9.50, -0.03, -0.00, 0.34, -20.56, -7.25, -39.13, -0.50, 0.20, 0.09, 0.01, -0.17, 9.63, 0.53, 0.02, -0.00, -0.85, 0.56, 0.05, 0.09, -0.82, 1.00, 0.06, 0.05, 0.05, 
17.82, 810.56, 23.72, 74.70, 0.00, 1843.41, 6047.92, 0.00, -0.15, 9.54, -0.03, -0.00, 0.34, -20.56, -7.25, -39.13, -0.50, 0.20, 0.09, 0.01, -0.17, 9.63, 0.53, 0.02, -0.00, -0.85, 0.56, 0.05, 0.09, -0.82, 1.00, 0.06, 0.05, 0.05, 
17.88, 810.57, 23.72, 74.70, 0.00, 1843.32, 6047.64, 0.00, -0.15, 9.54, -0.03, -0.00, 0.34, -20.56, -7.25, -39.13, -0.50, 0.20, 0.09, 0.01, -0.17, 9.63, 0.53, 0.02, -0.00, -0.85, 0.56, 0.05, 0.09, -0.82, 1.00, 0.06, 0.05, 0.05, 
17.96, 810.57, 23.72, 74.70, 0.00, 1843.34, 6047.71, 0.00, -0.15, 9.54, -0.03, -0.00, 0.34, -20.56, -7.25, -39.13, -0.50, 0.20, 0.09, 0.08, -0.22, 9.63, 0.53, 0.02, -0.00, -0.85, 0.56, 0.05, 0.09, -0.82, 1.00, 0.06, 0.05, 0.05, 
18.02, 810.58, 23.72, 74.70, 0.00, 1843.28, 6047.50, 0.00, -0.15, 9.54, 0.04, 0.04, -0.13, -20.56, -7.25, -39.13, -0.50, 0.20, 0.09, 0.08, -0.22, 9.63, 0.53, 0.02, -0.00, -0.85, 0.56, 0.05, 0.09, -0.82, 1.00, 0.06, 0.05, 0.05, 
18.10, 810.58, 23.72, 74.70, 0.00, 1843.24, 6047.39, 0.00, -0.15, 9.54, 0.04, 0.04, -0.13, -20.56, -7.25, -39.13, -0.50, 0.20, 0.09, 0.08, -0.22, 9.63, 0.53, 0.02, -0.00, -0.85, 0.56, 0.05, 0.09, -0.82, 1.00, 0.06, 0.05, 0.05, 
18.16, 810.57, 23.72, 74.70, 0.00, 1843.37, 6047.80, 0.00, -0.15, 9.54, 0.02, -0.01, -0.32, -20.56, -7.25, -39.13, -0.50, 0.20, 0.09, 0.08, -0.22, 9.63, 0.53, 0.02, -0.00, -0.85, 0.56, 0.05, 0.09, -0.82, 1.00, 0.06, 0.05, 0.05, 
18.23, 810.56, 23.72, 74.70, 0.00, 1843.47, 6048.12, 0.23, 0.38, 9.73, 0.02, -0.01, -0.32, -20.56, -7.25, -39.13, -0.50, 0.20, 0.09, 0.08, -0.22, 9.63, 0.53, 0.02, -0.00, -0.85, 0.56, 0.05, 0.09, -0.82, 1.00, 0.06, 0.05, 0.05, 
18.30, 810.57, 23.72, 74.70, 0.00, 1843.34, 6047.70, 0.23, 0.38, 9.73, -0.02, -0.01, 0.14, -20.56, -7.25, -39.13, -0.50, 0.20, 0.09, 0.08, -0.22, 9.63, 0.53, 0.02, -0.00, -0.85, 0.56, 0.05, 0.09, -0.82, 1.00, 0.06, 0.05, 0.05, 
18.37, 810.56, 23.72, 74.70, 0.00, 1843.42, 6047.97, 0.23, 0.38, 9.73, -0.02, -0.01, 0.14, -20.56, -7.25, -39.13, -0.50, 0.20, 0.09, 0.08, -0.22, 9.63, 0.53, 0.02, -0.00, -0.85, 0.56, 0.05, 0.09, -0.82, 1.00, -0.01, -0.00, 0.04, 
18.43, 810.55, 23.72, 74.70, 0.00, 1843.50, 6048.22, 0.23, 0.38, 9.73, -0.02, -0.01, 0.14, -20.56, -7.25, -39.13, -0.50, 0.20, 0.09, 0.08, -0.19, 9.64, 0.53, 0.02, -0.00, -0.85, 0.56, 0.05, 0.09, -0.82, 1.00, -0.01, -0.00, 0.04, 
18.51, 810.54, 23.72, 74.70, 0.00, 1843.59, 6048.52, 0.23, 0.38, 9.73, -0.02, -0.01, 0.14, -20.56, -7.25, -39.13, -0.50, 0.20, 0.09, 0.07, -0.20, 9.64, 0.53, 0.02, -0.00, -0.85, 0.56, 0.05, 0.09, -0.82, 1.00, -0.01, -0.00, 0.04, 
18.57, 810.54, 23.72, 74.70, 0.00, 1843.65, 6048.73, 0.23, 0.38, 9.73, 0.02, -0.00, 0.14, -20.56, -7.25, -39.13, -0.50, 0.20, 0.09, 0.07, -0.20, 9.64, 0.53, 0.02, -0.00, -0.85, 0.56, 0.05, 0.09, -0.82, 1.00, -0.01, -0.00, 0.04, 
18.65, 810.53, 23.72, 74.70, 0.00, 1843.68, 6048.83, 0.23, 0.38, 9.73, 0.02, 0.00, 0.15, -20.56, -7.25, -39.13, -0.50, 0.20, 0.09, 0.07, -0.20, 9.64, 0.53, 0.02, -0.00, -0.85, 0.56, 0.05, 0.09, -0.82, 1.00, -0.01, -0.00, 0.04, 
18.71, 810.53, 23.72, 74.70, 0.00, 1843.77, 6049.10, 0.23, 0.38, 9.73, 0.01, 0.00, -0.03, -20.56, -7.25, -39.13, -0.50, 0.20, 0.09, 0.07, -0.20, 9.64, 0.53, 0.02, -0.00, -0.85, 0.56, 0.05, 0.09, -0.82, 1.00, -0.01, -0.00, 0.04, 
18.79, 810.51, 23.72, 74.70, 0.00, 1843.90, 6049.53, 0.23, 0.38, 9.73, 0.01, 0.00, -0.03, -20.56, -7.25, -39.13, -0.50, 0.20, 0.09, 0.07, -0.20, 9.64, 0.53, 0.02, -0.00, -0.85, 0.56, 0.05, 0.09, -0.82, 1.00, -0.01, -0.00, 0.04, 
18.85, 810.52, 23.72, 74.70, 0.00, 1843.85, 6049.36, 0.23, 0.38, 9.73, 0.01, 0.00, -0.03, -20.56, -7.25, -39.13, -0.50, 0.20, 0.09, 0.07, -0.20, 9.64, 0.53, 0.02, -0.00, -0.85, 0.55, 0.05, 0.09, -0.83, 1.00, -0.01, -0.00, 0.04, 
18.92, 810.53, 23.72, 74.70, 0.00, 1843.74, 6049.02, 0.23, 0.38, 9.73, 0.01, 0.00, -0.03, -20.50, -7.62, -38.50, -0.50, 0.20, 0.09, 0.07, -0.20, 9.64, 0.53, 0.02, -0.00, -0.85, 0.55, 0.05, 0.09, -0.83, 1.00, -0.01, -0.00, 0.04, 
18.98, 810.53, 23.72, 74.70, 0.00, 1843.71, 6048.92, 0.23, 0.38, 9.73, 0.01, 0.00, -0.03, -20.50, -7.62, -38.50, -0.50, 0.20, 0.09, 0.07, -0.20, 9.64, 0.54, -0.01, 0.01, -0.84, 0.55, 0.05, 0.09, -0.83, 1.00, -0.01, -0.00, 0.04, 
19.06, 810.53, 23.72, 74.70, 0.00, 1843.70, 6048.90, 0.23, 0.38, 9.73, 0.01, 0.00, -0.03, -20.50, -7.62, -38.50, -0.50, 0.20, 0.09, 0.07, -0.20, 9.64, 0.54, -0.01, 0.01, -0.84, 0.55, 0.05, 0.09, -0.83, 1.00, -0.01, -0.00, 0.04, 
19.12, 810.53, 23.72, 74.70, 0.00, 1843.72, 6048.95, 0.23, 0.38, 9.73, 0.04, -0.01, -0.08, -20.50, -7.62, -38.50, -0.50, 0.20, 0.09, 0.07, -0.20, 9.64, 0.54, -0.01, 0.01, -0.84, 0.55, 0.05, 0.09, -0.83, 1.00, -0.01, -0.00, 0.04, 
19.20, 810.53, 23.72, 74.70, 0.00, 1843.74, 6049.01, 0.23, 0.38, 9.73, 0.04, -0.01, -0.08, -20.50, -7.62, -38.50, -0.50, 0.20, 0.09, 0.07, -0.20, 9.64, 0.54, -0.01, 0.01, -0.84, 0.55, 0.05, 0.09, -0.83, 1.00, -0.01, -0.00, 0.04, 
19.26, 810.53, 23.72, 74.70, 0.00, 1843.72, 6048.95, -0.34, 0.54, 9.69, 0.04, -0.01, -0.08, -20.50, -7.62, -38.50, -0.50, 0.20, 0.09, 0.07, -0.20, 9.64, 0.54, -0.01, 0.01, -0.84, 0.55, 0.05, 0.09, -0.83, 1.00, -0.01, -0.00, 0.04, 
19.34, 810.53, 23.72, 74.70, 0.00, 1843.75, 6049.06, -0.34, 0.54, 9.69, -0.04, -0.01, -0.03, -20.50, -7.62, -38.50, -0.50, 0.20, 0.09, 0.07, -0.20, 9.64, 0.54, -0.01, 0.01, -0.84, 0.55, 0.05, 0.09, -0.83, 1.00, -0.01, -0.00, 0.04, 
19.40, 810.53, 23.72, 74.70, 0.00, 1843.70, 6048.90, 0.46, 0.00, 9.61, -0.04, -0.01, -0.03, -20.50, -7.62, -38.50, -0.50, 0.20, 0.09, 0.07, -0.20, 9.64, 0.54, -0.01, 0.01, -0.84, 0.55, 0.05, 0.09, -0.83, 1.00, -0.01, -0.00, 0.04, 
19.47, 810.54, 23.72, 74.70, 0.00, 1843.67, 6048.77, 0.46, 0.00, 9.61, -0.04, -0.01, -0.03, -20.50, -7.62, -38.50, -0.50, 0.20, 0.09, 0.07, -0.20, 9.64, 0.54, -0.01, 0.01, -0.84, 0.55, 0.05, 0.09, -0.83, 1.00, -0.01, -0.00, 0.04, 
19.54, 810.55, 23.72, 74.70, 0.00, 1843.57, 6048.46, 0.46, 0.00, 9.61, -0.04, -0.01, -0.03, -20.50, -7.62, -38.50, -0.50, 0.20, 0.09, 0.09, -0.20, 9.65, 0.54, -0.01, 0.01, -0.84, 0.55, 0.05, 0.09, -0.83, 1.00, -0.01, -0.00, 0.04, 
19.61, 810.54, 23.72, 74.70, 0.00, 1843.59, 6048.53, 0.46, 0.00, 9.61, -0.04, -0.01, -0.03, -20.50, -7.62, -38.50, -0.50, 0.20, 0.09, 0.07, -0.18, 9.65, 0.54, -0.01, 0.01, -0.84, 0.55, 0.05, 0.09, -0.83, 1.00, -0.01, -0.00, 0.04, 
19.67, 810.55, 23.73, 74.71, 0.00, 1843.54, 6048.36, 0.46, 0.00, 9.61, 0.04, -0.02, 0.02, -20.50, -7.62, -38.50, -0.50, 0.20, 0.09, 0.07, -0.18, 9.65, 0.54, -0.01, 0.01, -0.84, 0.55, 0.05, 0.09, -0.83, 1.00, -0.01, -0.00, 0.04, 
19.75, 810.55, 23.73, 74.71, 0.00, 1843.57, 6048.47, 0.04, 0.34, 9.69, 0.04, -0.02, 0.02, -20.50, -7.62, -38.50, -0.50, 0.20, 0.09, 0.07, -0.18, 9.65, 0.54, -0.01, 0.01, -0.84, 0.55, 0.05, 0.09, -0.83, 1.00, -0.01, -0.00, 0.04, 
19.81, 810.55, 23.73, 74.71, 0.00, 1843.50, 6048.23, 0.04, 0.34, 9.69, -0.03, -0.01, 0.00, -20.50, -7.62, -38.50, -0.50, 0.20, 0.09, 0.07, -0.18, 9.65, 0.54, -0.01, 0.01, -0.84, 0.55, 0.05, 0.09, -0.83, 1.00, -0.01, -0.00, 0.04, 
19.89, 810.55, 23.73, 74.71, 0.00, 1843.53, 6048.32, 0.04, 0.34, 9.69, -0.03, -0.01, 0.00, -20.12, -8.06, -39.31, -0.50, 0.20, 0.09, 0.07, -0.18, 9.65, 0.54, -0.01, 0.01, -0.84, 0.55, 0.05, 0.09, -0.83, 1.00, -0.01, -0.00, 0.04, 
19.95, 810.54, 23.73, 74.71, 0.00, 1843.64, 6048.67, 0.04, 0.34, 9.69, -0.03, -0.01, 0.00, -20.12, -8.06, -39.31, -0.50, 0.20, 0.09, 0.07, -0.18, 9.65, 0.54, -0.01, 0.01, -0.84, 0.55, 0.05, 0.09, -0.83, 1.00, -0.01, -0.00, 0.04, 
20.02, 810.54, 23.73, 74.71, 0.00, 1843.62, 6048.62, 0.04, 0.34, 9.69, -0.03, -0.01, 0.00, -20.12, -8.06, -39.31, -0.50, 0.20, 0.09, 0.08, -0.20, 9.65, 0.54, -0.01, 0.01, -0.84, 0.55, 0.05, 0.09, -0.83, 1.00, -0.01, -0.00, 0.04, 
20.08, 810.54, 23.73, 74.71, 0.00, 1843.58, 6048.50, 0.04, 0.34, 9.69, 0.03, -0.03, 0.06, -20.12, -8.06, -39.31, -0.50, 0.20, 0.09, 0.08, -0.20, 9.65, 0.54, -0.01, 0.01, -0.84, 0.55, 0.05, 0.09, -0.83, 1.00, -0.01, -0.00, 0.04, 
20.16, 810.55, 23.73, 74.71, 0.00, 1843.57, 6048.46, 0.04, 0.34, 9.69, 0.03, -0.03, 0.06, -20.12, -8.06, -39.31, -0.50, 0.20, 0.09, 0.08, -0.20, 9.65, 0.54, -0.01, 0.01, -0.84, 0.55, 0.05, 0.09, -0.83, 1.00, -0.01, -0.00, 0.04, 
20.22, 810.54, 23.73, 74.71, 0.00, 1843.59, 6048.53, 0.23, 0.04, 9.61, 0.03, -0.03, 0.06, -20.12, -8.06, -39.31, -0.50, 0.20, 0.09, 0.08, -0.20, 9.65, 0.54, -0.01, 0.01, -0.84, 0.55, 0.05, 0.09, -0.83, 1.00, -0.01, -0.00, 0.04, 
20.31, 810.55, 23.73, 74.71, 0.00, 1843.54, 6048.36, 0.23, 0.04, 9.61, 0.03, -0.03, 0.06, -20.12, -8.06, -39.31, -0.50, 0.20, 0.09, 0.08, -0.20, 9.65, 0.54, -0.01, 0.01, -0.84, 0.55, 0.05, 0.09, -0.83, 1.00, -0.01, -0.00, 0.04, 
20.37, 810.55, 23.73, 74.71, 0.00, 1843.49, 6048.20, 0.23, 0.04, 9.61, -0.04, 0.01, 0.01, -20.12, -8.06, -39.31, -0.50, 0.20, 0.09, 0.08, -0.20, 9.65, 0.54, -0.01, 0.01, -0.84, 0.55, 0.05, 0.09, -0.83, 1.00, -0.01, -0.00, 0.04, 
20.45, 810.56, 23.73, 74.71, 0.00, 1843.47, 6048.14, 0.23, 0.04, 9.61, -0.04, 0.01, 0.01, -20.12, -8.06, -39.31, 0.06, -0.31, -0.04, 0.08, -0.20, 9.65, 0.54, -0.01, 0.01, -0.84, 0.55, 0.05, 0.09, -0.83, 1.00, -0.01, -0.00, 0.04, 
20.51, 810.56, 23.73, 74.71, 0.00, 1843.46, 6048.09, 0.23, 0.04, 9.61, 0.02, -0.00, 0.01, -20.12, -8.06, -39.31, 0.06, -0.31, -0.04, 0.08, -0.20, 9.65, 0.54, -0.01, 0.01, -0.84, 0.55, 0.05, 0.09, -0.83, 1.00, -0.01, -0.00, 0.04, 
20.60, 810.55, 23.73, 74.71, 0.00, 1843.50, 6048.23, 0.23, 0.04, 9.61, 0.02, -0.00, 0.01, -20.12, -8.06, -39.31, 0.06, -0.31, -0.04, 0.08, -0.20, 9.65, 0.54, -0.01, 0.01, -0.84, 0.55, 0.05, 0.09, -0.83, 1.00, -0.01, -0.00, 0.04, 
20.66, 810.56, 23.73, 74.71, 0.00, 1843.41, 6047.94, 0.23, 0.04, 9.61, 0.02, 0.00, 0.13, -20.12, -8.06, -39.31, 0.06, -0.31, -0.04, 0.08, -0.20, 9.65, 0.54, -0.01, 0.01, -0.84, 0.55, 0.05, 0.09, -0.83, 1.00, -0.01, -0.00, 0.04, 
20.74, 810.56, 23.73, 74.71, 0.00, 1843.38, 6047.84, 0.23, 0.04, 9.61, 0.02, 0.00, 0.13, -20.12, -8.06, -39.31, 0.06, -0.31, -0.04, 0.08, -0.20, 9.65, 0.54, -0.01, 0.01, -0.84, 0.55, 0.05, 0.09, -0.83, 1.00, -0.01, -0.00, 0.05, 
20.80, 810.57, 23.73, 74.71, 0.00, 1843.35, 6047.75, 0.23, 0.04, 9.61, -0.03, -0.00, 0.04, -20.12, -8.06, -39.31, 0.06, -0.31, -0.04, 0.08, -0.20, 9.65, 0.54, -0.01, 0.01, -0.84, 0.55, 0.05, 0.09, -0.83, 1.00, -0.01, -0.00, 0.05, 
20.87, 810.56, 23.73, 74.71, 0.00, 1843.39, 6047.85, 0.23, 0.04, 9.61, -0.03, -0.00, 0.04, -20.12, -8.06, -39.31, 0.06, -0.31, -0.04, 0.08, -0.20, 9.65, 0.54, -0.01, 0.01, -0.84, 0.55, 0.05, 0.09, -0.83, 1.00, -0.01, -0.00, 0.05, 
20.94, 810.56, 23.73, 74.71, 0.00, 1843.39, 6047.88, 0.23, 0.04, 9.61, -0.00, -0.00, 0.03, -20.12, -8.06, -39.31, 0.06, -0.31, -0.04, 0.08, -0.20, 9.65, 0.54, -0.01, 0.01, -0.84, 0.55, 0.05, 0.09, -0.83, 1.00, -0.01, -0.00, 0.05, 
21.01, 810.56, 23.73, 74.71, 0.00, 1843.47, 6048.12, 0.23, 0.04, 9.61, -0.00, -0.00, 0.03, -20.87, -7.56, -39.75, 0.06, -0.31, -0.04, 0.08, -0.20, 9.65, 0.54, -0.01, 0.01, -0.84, 0.55, 0.05, 0.09, -0.83, 1.00, -0.01, -0.00, 0.05, 
21.07, 810.55, 23.73, 74.72, 0.00, 1843.49, 6048.20, 0.23, 0.04, 9.61, -0.00, -0.00, 0.03, -20.87, -7.56, -39.75, 0.06, -0.31, -0.04, 0.08, -0.20, 9.65, 0.54, -0.01, 0.01, -0.84, 0.55, 0.05, 0.09, -0.83, 1.00, -0.01, -0.00, 0.05, 
21.15, 810.55, 23.73, 74.72, 0.00, 1843.52, 6048.31, 0.15, 0.27, 9.65, -0.00, -0.00, 0.03, -20.87, -7.56, -39.75, 0.06, -0.31, -0.04, 0.08, -0.20, 9.65, 0.54, -0.01, 0.01, -0.84, 0.55, 0.05, 0.09, -0.83, 1.00, -0.01, -0.00, 0.05, 
21.21, 810.54, 23.73, 74.72, 0.00, 1843.63, 6048.65, 0.15, 0.27, 9.65, -0.00, -0.00, 0.03, -20.87, -7.56, -39.75, 0.06, -0.31, -0.04, 0.08, -0.20, 9.65, 0.54, -0.01, 0.01, -0.84, 0.55, 0.05, 0.09, -0.83, 1.00, -0.01, -0.00, 0.05, 
21.29, 810.56, 23.73, 74.72, 0.00, 1843.44, 6048.05, 0.15, 0.27, 9.65, -0.00, -0.00, 0.03, -20.87, -7.56, -39.75, 0.06, -0.31, -0.04, 0.08, -0.20, 9.65, 0.54, -0.01, 0.01, -0.84, 0.55, 0.05, 0.09, -0.83, 1.00, -0.01, -0.00, 0.05, 
21.35, 810.57, 23.73, 74.72, 0.00, 1843.38, 6047.82, 0.15, 0.27, 9.65, -0.00, -0.00, 0.03, -20.87, -7.56, -39.75, 0.06, -0.31, -0.04, 0.09, -0.16, 9.65, 0.54, -0.01, 0.01, -0.84, 0.55, 0.05, 0.09, -0.83, 1.00, -0.01, -0.00, 0.05, 
21.43, 810.56, 23.73, 74.72, 0.00, 1843.39, 6047.88, 0.15, 0.27, 9.65, -0.01, -0.00, 0.04, -20.87, -7.56, -39.75, 0.06, -0.31, -0.04, 0.09, -0.16, 9.65, 0.54, -0.01, 0.01, -0.84, 0.55, 0.05, 0.09, -0.83, 1.00, -0.01, -0.00, 0.05, 
21.49, 810.55, 23.73, 74.72, 0.00, 1843.53, 6048.33, 0.15, 0.27, 9.65, -0.01, -0.00, 0.04, -20.87, -7.56, -39.75, 0.06, -0.31, -0.04, 0.09, -0.16, 9.65, 0.54, -0.01, 0.01, -0.84, 0.55, 0.05, 0.09, -0.83, 1.00, -0.01, -0.00, 0.05, 
21.56, 810.55, 23.73, 74.72, 0.00, 1843.51, 6048.25, 0.15, 0.27, 9.65, -0.01, -0.00, 0.04, -19.06, -7.37, -40.13, 0.06, -0.31, -0.04, 0.09, -0.16, 9.65, 0.54, -0.01, 0.01, -0.84, 0.55, 0.05, 0.09, -0.83, 1.00, -0.01, -0.00, 0.05, 
21.62, 810.55, 23.74, 74.72, 0.00, 1843.55, 6048.39, 0.15, 0.27, 9.65, -0.01, -0.00, 0.04, -19.06, -7.37, -40.13, 0.06, -0.31, -0.04, 0.09, -0.16, 9.65, 0.54, -0.01, 0.01, -0.84, 0.55, 0.05, 0.09, -0.83, 1.00, -0.01, -0.00, 0.05, 
21.70, 810.56, 23.74, 74.72, 0.00, 1843.46, 6048.09, 0.15, 0.27, 9.65, -0.01, -0.00, 0.04, -19.06, -7.37, -40.13, 0.06, -0.31, -0.04, 0.06, -0.10, 9.65, 0.54, -0.01, 0.01, -0.84, 0.55, 0.05, 0.09, -0.83, 1.00, -0.01, -0.00, 0.05, 
21.76, 810.55, 23.74, 74.73, 0.00, 1843.49, 6048.21, 0.15, 0.27, 9.65, -0.01, -0.00, 0.04, -20.00, -8.75, -38.25, 0.06, -0.31, -0.04, 0.06, -0.10, 9.65, 0.54, -0.01, 0.01, -0.84, 0.55, 0.05, 0.09, -0.83, 1.00, -0.01, -0.00, 0.05, 
21.84, 810.56, 23.74, 74.73, 0.00, 1843.42, 6047.98, 0.15, 0.27, 9.65, -0.01, -0.00, 0.04, -20.00, -8.75, -38.25, 0.06, -0.31, -0.04, 0.06, -0.10, 9.65, 0.54, -0.01, 0.01, -0.84, 0.55, 0.05, 0.09, -0.83, 1.00, -0.01, -0.00, 0.05, 
21.90, 810.57, 23.74, 74.73, 0.00, 1843.35, 6047.72, 0.15, 0.27, 9.65, -0.01, -0.00, 0.04, -20.00, -8.75, -38.25, 0.06, -0.31, -0.04, 0.06, -0.10, 9.65, 0.54, -0.01, 0.01, -0.84, 0.55, 0.05, 0.09, -0.83, 1.00, -0.01, -0.00, 0.05, 
21.98, 810.57, 23.74, 74.73, 0.00, 1843.37, 6047.79, 0.15, 0.27, 9.65, -0.01, -0.00, 0.04, -20.00, -8.75, -38.25, 0.06, -0.31, -0.04, 0.06, -0.10, 9.65, 0.54, -0.01, 0.01, -0.84, 0.55, 0.05, 0.09, -0.83, 1.00, -0.01, -0.00, 0.05, 
22.04, 810.56, 23.74, 74.73, 0.00, 1843.41, 6047.93, 0.15, 0.27, 9.65, 0.00, 0.01, 0.08, -20.00, -8.75, -38.25, 0.06, -0.31, -0.04, 0.06, -0.10, 9.65, 0.54, -0.01, 0.01, -0.84, 0.55, 0.05, 0.09, -0.83, 1.00, -0.01, -0.00, 0.05, 
22.12, 810.56, 23.74, 74.73, 0.00, 1843.40, 6047.90, 0.15, 0.27, 9.65, 0.01, -0.02, 0.20, -20.00, -8.75, -38.25, 0.06, -0.31, -0.04, 0.06, -0.10, 9.65, 0.54, -0.01, 0.01, -0.84, 0.55, 0.05, 0.09, -0.83, 1.00, -0.01, -0.00, 0.05, 
22.18, 810.56, 23.74, 74.73, 0.00, 1843.45, 6048.05, 0.08, -0.23, 9.65, 0.01, -0.02, 0.20, -20.00, -8.75, -38.25, 0.06, -0.31, -0.04, 0.06, -0.10, 9.65, 0.54, -0.01, 0.01, -0.84, 0.55, 0.05, 0.09, -0.83, 1.00, -0.01, -0.00, 0.05, 
22.26, 810.55, 23.74, 74.73, 0.00, 1843.56, 6048.43, 0.08, -0.23, 9.65, 0.01, -0.02, 0.20, -20.00, -8.75, -38.25, 0.11, 0.08, -0.04, 0.06, -0.10, 9.65, 0.54, -0.01, 0.01, -0.84, 0.55, 0.05, 0.09, -0.83, 1.00, -0.01, -0.00, 0.05, 
22.32, 810.55, 23.74, 74.73, 0.00, 1843.49, 6048.20, 0.08, -0.23, 9.65, -0.01, 0.01, 0.08, -20.00, -8.75, -38.25, 0.11, 0.08, -0.04, 0.06, -0.10, 9.65, 0.54, -0.01, 0.01, -0.84, 0.55, 0.05, 0.09, -0.83, 1.00, -0.01, -0.00, 0.05, 
22.39, 810.56, 23.74, 74.73, 0.00, 1843.47, 6048.14, 0.08, -0.23, 9.65, -0.01, 0.01, 0.08, -20.00, -8.75, -38.25, 0.11, 0.08, -0.04, 0.06, -0.10, 9.65, 0.55, -0.01, 0.00, -0.83, 0.55, 0.05, 0.09, -0.83, 1.00, -0.01, -0.00, 0.05, 
22.45, 810.57, 23.74, 74.73, 0.00, 1843.33, 6047.68, 0.08, -0.23, 9.65, -0.01, 0.01, 0.08, -20.44, -8.31, -39.44, 0.11, 0.08, -0.04, 0.06, -0.10, 9.65, 0.55, -0.01, 0.00, -0.83, 0.55, 0.05, 0.09, -0.83, 1.00, -0.01, -0.00, 0.05, 
22.53, 810.57, 23.74, 74.73, 0.00, 1843.33, 6047.69, -1.04, -0.34, 10.57, -0.01, 0.01, 0.08, -20.44, -8.31, -39.44, 0.11, 0.08, -0.04, 0.06, -0.10, 9.65, 0.55, -0.01, 0.00, -0.83, 0.55, 0.05, 0.09, -0.83, 1.00, -0.01, -0.00, 0.05, 
22.59, 810.57, 23.74, 74.73, 0.00, 1843.33, 6047.66, -1.04, -0.34, 10.57, -0.01, 0.01, 0.08, -20.44, -8.31, -39.44, 0.11, 0.08, -0.04, 0.06, -0.10, 9.65, 0.55, -0.01, 0.00, -0.83, 0.55, 0.05, 0.09, -0.83, 1.00, -0.01, -0.00, 0.05, 
22.67, 810.57, 23.74, 74.73, 0.00, 1843.34, 6047.70, -1.04, -0.34, 10.57, -0.01, 0.01, 0.08, -20.44, -8.31, -39.44, 0.12, 0.11, -0.04, 0.06, -0.10, 9.65, 0.55, -0.01, 0.00, -0.83, 0.55, 0.05, 0.09, -0.83, 1.00, -0.01, -0.00, 0.05, 
22.73, 810.58, 23.74, 74.74, 0.00, 1843.25, 6047.41, -1.04, -0.34, 10.57, 0.00, -0.02, -0.03, -20.44, -8.31, -39.44, 0.12, 0.11, -0.04, 0.06, -0.10, 9.65, 0.55, -0.01, 0.00, -0.83, 0.55, 0.05, 0.09, -0.83, 1.00, -0.01, -0.00, 0.05, 
22.80, 810.58, 23.74, 74.73, 0.00, 1843.25, 6047.41, -1.04, -0.34, 10.57, 0.00, -0.02, -0.03, -20.44, -8.31, -39.44, 0.12, 0.11, -0.04, 0.09, -0.15, 9.66, 0.55, -0.01, 0.00, -0.83, 0.55, 0.05, 0.09, -0.83, 1.00, -0.01, -0.00, 0.05, 
22.87, 810.57, 23.74, 74.74, 0.00, 1843.29, 6047.54, -1.04, -0.34, 10.57, 0.00, -0.02, -0.03, -20.44, -8.31, -39.44, 0.12, 0.11, -0.04, 0.09, -0.15, 9.66, 0.55, -0.01, 0.00, -0.83, 0.55, 0.05, 0.09, -0.83, 1.00, -0.01, -0.00, 0.05, 
22.94, 810.56, 23.74, 74.74, 0.00, 1843.47, 6048.12, -1.04, -0.34, 10.57, 0.00, -0.02, -0.03, -20.44, -8.31, -39.44, 0.12, 0.11, -0.04, 0.09, -0.15, 9.66, 0.55, -0.01, 0.00, -0.83, 0.55, 0.05, 0.09, -0.83, 1.00, -0.01, -0.00, 0.05, 
23.01, 810.56, 23.74, 74.74, 0.00, 1843.42, 6047.95, -1.04, -0.34, 10.57, 0.00, -0.02, -0.03, -20.44, -8.31, -39.44, 0.12, 0.11, -0.04, 0.09, -0.15, 9.66, 0.55, -0.01, 0.00, -0.83, 0.55, 0.05, 0.09, -0.83, 1.00, -0.01, -0.00, 0.05, 
23.08, 810.56, 23.74, 74.74, 0.00, 1843.44, 6048.04, -1.04, -0.34, 10.57, 0.00, -0.02, -0.03, -20.44, -8.31, -39.44, 0.12, 0.11, -0.04, 0.09, -0.15, 9.66, 0.55, -0.01, 0.00, -0.83, 0.55, 0.05, 0.09, -0.83, 1.00, -0.01, -0.00, 0.05, 
23.14, 810.57, 23.75, 74.74, 0.00, 1843.36, 6047.76, -1.04, -0.34, 10.57, 0.00, -0.02, -0.03, -20.12, -7.62, -38.69, 0.12, 0.11, -0.04, 0.09, -0.15, 9.66, 0.55, -0.01, 0.00, -0.83, 0.55, 0.05, 0.09, -0.83, 1.00, -0.01, -0.00, 0.05, 
23.22, 810.57, 23.75, 74.74, 0.00, 1843.34, 6047.71, -1.04, -0.34, 10.57, 0.00, 0.04, -0.09, -20.12, -7.62, -38.69, 0.12, 0.11, -0.04, 0.09, -0.15, 9.66, 0.55, -0.01, 0.00, -0.83, 0.55, 0.05, 0.09, -0.83, 1.00, -0.01, -0.00, 0.05, 
23.28, 810.57, 23.75, 74.74, 0.00, 1843.30, 6047.58, -0.15, 0.38, 9.65, 0.00, 0.04, -0.09, -20.12, -7.62, -38.69, 0.12, 0.11, -0.04, 0.09, -0.15, 9.66, 0.55, -0.01, 0.00, -0.83, 0.55, 0.05, 0.09, -0.83, 1.00, -0.01, -0.00, 0.05, 
23.36, 810.58, 23.75, 74.74, 0.00, 1843.25, 6047.41, -0.15, 0.38, 9.65, -0.00, 0.01, -0.03, -20.12, -7.62, -38.69, 0.12, 0.11, -0.04, 0.09, -0.15, 9.66, 0.55, -0.01, 0.00, -0.83, 0.55, 0.05, 0.09, -0.83, 1.00, -0.01, -0.00, 0.05, 
23.42, 810.58, 23.75, 74.74, 0.00, 1843.27, 6047.48, -0.15, 0.38, 9.65, -0.00, 0.01, -0.03, -20.12, -7.62, -38.69, 0.12, 0.11, -0.04, 0.09, -0.15, 9.66, 0.55, -0.01, 0.00, -0.83, 0.55, 0.05, 0.09, -0.83, 1.00, -0.01, -0.00, 0.05, 
23.50, 810.58, 23.75, 74.74, 0.00, 1843.23, 6047.35, -0.15, 0.38, 9.65, -0.00, -0.03, -0.03, -20.12, -7.62, -38.69, 0.12, 0.11, -0.04, 0.09, -0.15, 9.66, 0.55, -0.01, 0.00, -0.83, 0.55, 0.05, 0.09, -0.83, 1.00, -0.01, -0.00, 0.05, 
23.56, 810.58, 23.75, 74.75, 0.00, 1843.26, 6047.45, -0.15, 0.38, 9.65, -0.00, -0.03, -0.03, -19.12, -7.00, -37.94, 0.12, 0.11, -0.04, 0.09, -0.15, 9.66, 0.55, -0.01, 0.00, -0.83, 0.55, 0.05, 0.09, -0.83, 1.00, -0.01, -0.00, 0.05, 
23.63, 810.57, 23.75, 74.75, 0.00, 1843.33, 6047.67, -0.15, 0.38, 9.65, -0.00, -0.03, -0.03, -19.12, -7.00, -37.94, 0.12, 0.11, -0.04, 0.09, -0.15, 9.66, 0.55, -0.01, 0.00, -0.83, 0.55, 0.05, 0.09, -0.83, 1.00, -0.01, -0.00, 0.05, 
23.69, 810.58, 23.75, 74.75, 0.00, 1843.26, 6047.43, -0.15, 0.38, 9.65, -0.00, -0.03, -0.03, -19.12, -7.00, -37.94, 0.12, 0.11, -0.04, 0.09, -0.15, 9.66, 0.55, -0.01, 0.01, -0.83, 0.55, 0.05, 0.09, -0.83, 1.00, -0.01, -0.00, 0.05, 
23.77, 810.58, 23.75, 74.75, 0.00, 1843.27, 6047.48, -0.15, 0.38, 9.65, 0.00, 0.01, 0.02, -19.12, -7.00, -37.94, 0.12, 0.11, -0.04, 0.09, -0.15, 9.66, 0.55, -0.01, 0.01, -0.83, 0.55, 0.05, 0.09, -0.83, 1.00, -0.01, -0.00, 0.05, 
23.83, 810.59, 23.75, 74.75, 0.00, 1843.16, 6047.10, -0.15, 0.38, 9.65, 0.00, -0.01, 0.02, -19.12, -7.00, -37.94, 0.12, 0.11, -0.04, 0.09, -0.15, 9.66, 0.55, -0.01, 0.01, -0.83, 0.55, 0.05, 0.09, -0.83, 1.00, -0.01, -0.00, 0.05, 
23.91, 810.58, 23.75, 74.75, 0.00, 1843.19, 6047.22, 0.00, -0.04, 9.65, 0.00, -0.01, 0.02, -19.12, -7.00, -37.94, 0.12, 0.11, -0.04, 0.09, -0.15, 9.66, 0.55, -0.01, 0.01, -0.83, 0.55, 0.05, 0.09, -0.83, 1.00, -0.01, -0.00, 0.05, 
23.97, 810.58, 23.75, 74.75, 0.00, 1843.20, 6047.26, 0.00, -0.04, 9.65, 0.00, -0.01, 0.02, -19.12, -7.00, -37.94, 0.30, -0.27, -0.00, 0.09, -0.15, 9.66, 0.55, -0.01, 0.01, -0.83, 0.55, 0.05, 0.09, -0.83, 1.00, -0.01, -0.00, 0.05, 
24.05, 810.59, 23.75, 74.75, 0.00, 1843.13, 6047.01, 0.00, -0.04, 9.65, 0.00, -0.01, 0.02, -19.12, -7.00, -37.94, 0.30, -0.27, -0.00, 0.09, -0.15, 9.66, 0.55, -0.01, 0.01, -0.83, 0.55, 0.05, 0.09, -0.83, 1.00, -0.01, -0.00, 0.05, 
24.11, 810.59, 23.75, 74.76, 0.00, 1843.17, 6047.15, 0.00, -0.04, 9.65, 0.00, -0.01, 0.02, -19.12, -7.00, -37.94, 0.30, -0.27, -0.00, 0.09, -0.15, 9.66, 0.55, -0.01, 0.01, -0.83, 0.55, 0.05, 0.09, -0.83, 1.00, -0.01, -0.00, 0.05, 
24.19, 810.59, 23.75, 74.76, 0.00, 1843.16, 6047.12, 0.00, -0.04, 9.65, 0.00, -0.01, 0.02, -19.12, -7.00, -37.94, 0.30, -0.27, -0.00, 0.09, -0.15, 9.66, 0.55, -0.01, 0.01, -0.83, 0.55, 0.05, 0.09, -0.83, 1.00, -0.01, -0.00, 0.05, 
24.25, 810.59, 23.75, 74.76, 0.00, 1843.16, 6047.12, 0.00, -0.04, 9.65, 0.00, -0.02, 0.00, -19.12, -7.00, -37.94, 0.30, -0.27, -0.00, 0.09, -0.15, 9.66, 0.55, -0.01, 0.01, -0.83, 0.55, 0.05, 0.09, -0.83, 1.00, -0.01, -0.00, 0.05, 
24.32, 810.59, 23.75, 74.76, 0.00, 1843.10, 6046.93, 0.00, -0.04, 9.65, 0.00, -0.02, 0.00, -19.12, -7.00, -37.94, 0.30, -0.27, -0.00, 0.09, -0.15, 9.66, 0.55, -0.01, 0.01, -0.83, 0.55, 0.05, 0.09, -0.83, 1.00, -0.01, -0.00, 0.05, 
24.39, 810.59, 23.76, 74.76, 0.00, 1843.14, 6047.04, 0.00, -0.04, 9.65, 0.01, 0.00, 0.01, -19.12, -7.00, -37.94, 0.30, -0.27, -0.00, 0.09, -0.15, 9.66, 0.55, -0.01, 0.01, -0.83, 0.55, 0.05, 0.09, -0.83, 1.00, -0.01, -0.00, 0.05, 
24.46, 810.59, 23.75, 74.76, 0.00, 1843.11, 6046.94, 0.00, 0.23, 9.61, 0.01, 0.00, 0.01, -19.12, -7.00, -37.94, 0.30, -0.27, -0.00, 0.09, -0.15, 9.66, 0.55, -0.01, 0.01, -0.83, 0.55, 0.05, 0.09, -0.83, 1.00, -0.01, -0.00, 0.05, 
24.52, 810.59, 23.76, 74.76, 0.00, 1843.08, 6046.87, 0.00, 0.23, 9.61, -0.01, 0.01, -0.02, -19.12, -7.00, -37.94, 0.30, -0.27, -0.00, 0.09, -0.15, 9.66, 0.55, -0.01, 0.01, -0.83, 0.55, 0.05, 0.09, -0.83, 1.00, -0.01, -0.00, 0.05, 
24.60, 810.60, 23.76, 74.76, 0.00, 1843.06, 6046.78, 0.00, 0.23, 9.61, -0.01, 0.01, -0.02, -19.12, -7.00, -37.94, 0.30, -0.27, -0.00, 0.09, -0.15, 9.66, 0.55, -0.01, 0.01, -0.83, 0.55, 0.05, 0.09, -0.83, 1.00, -0.01, -0.00, 0.05, 
24.66, 810.60, 23.76, 74.76, 0.00, 1843.06, 6046.80, 0.00, 0.23, 9.61, -0.00, -0.02, 0.02, -19.12, -7.00, -37.94, 0.30, -0.27, -0.00, 0.09, -0.15, 9.66, 0.55, -0.01, 0.01, -0.83, 0.55, 0.05, 0.09, -0.83, 1.00, -0.01, -0.00, 0.05, 
24.74, 810.59, 23.76, 74.76, 0.00, 1843.11, 6046.95, 0.00, 0.23, 9.61, -0.00, -0.02, 0.02, -19.12, -7.00, -37.94, 0.30, -0.27, -0.00, 0.09, -0.15, 9.66, 0.55, -0.01, 0.01, -0.83, 0.55, 0.05, 0.09, -0.83, 1.00, -0.01, -0.00, 0.05, 
24.80, 810.59, 23.76, 74.76, 0.00, 1843.14, 6047.06, 0.00, 0.23, 9.61, 0.01, 0.01, 0.07, -19.12, -7.00, -37.94, 0.30, -0.27, -0.00, 0.09, -0.15, 9.66, 0.55, -0.01, 0.01, -0.83, 0.55, 0.05, 0.09, -0.83, 1.00, -0.01, -0.00, 0.05, 
24.88, 810.59, 23.76, 74.77, 0.00, 1843.12, 6046.98, 0.00, 0.23, 9.61, 0.01, 0.01, 0.07, -19.12, -7.00, -37.94, 0.30, -0.27, -0.00, 0.09, -0.15, 9.66, 0.55, -0.01, 0.01, -0.83, 0.55, 0.05, 0.09, -0.83, 1.00, -0.01, -0.00, 0.05, 
24.94, 810.59, 23.76, 74.77, 0.00, 1843.18, 6047.17, 0.00, 0.23, 9.61, 0.01, 0.01, 0.07, -19.12, -7.00, -37.94, 0.30, -0.27, -0.00, 0.09, -0.15, 9.66, 0.55, -0.01, 0.01, -0.83, 0.55, 0.05, 0.09, -0.83, 1.00, -0.01, -0.00, 0.05, 
25.01, 810.57, 23.76, 74.77, 0.00, 1843.34, 6047.69, 0.00, 0.08, 9.65, 0.01, 0.01, 0.07, -19.12, -7.00, -37.94, 0.30, -0.27, -0.00, 0.09, -0.15, 9.66, 0.55, -0.01, 0.01, -0.83, 0.55, 0.05, 0.09, -0.83, 1.00, -0.01, -0.00, 0.05, 
25.07, 810.56, 23.76, 74.77, 0.00, 1843.39, 6047.88, 0.00, 0.08, 9.65, 0.01, 0.01, 0.07, -19.12, -7.00, -37.94, 0.30, -0.27, -0.00, 0.09, -0.15, 9.66, 0.55, -0.01, 0.01, -0.83, 0.55, 0.04, 0.08, -0.83, 1.00, -0.01, -0.00, 0.05, 
25.15, 810.56, 23.76, 74.77, 0.00, 1843.38, 6047.85, 0.30, -0.34, 9.65, 0.01, 0.01, 0.07, -19.12, -7.00, -37.94, 0.30, -0.27, -0.00, 0.09, -0.15, 9.66, 0.55, -0.01, 0.01, -0.83, 0.55, 0.04, 0.08, -0.83, 1.00, -0.01, -0.00, 0.05, 
25.21, 810.57, 23.76, 74.77, 0.00, 1843.30, 6047.58, 0.30, -0.34, 9.65, -0.00, 0.02, -0.01, -19.12, -7.00, -37.94, 0.30, -0.27, -0.00, 0.09, -0.15, 9.66, 0.55, -0.01, 0.01, -0.83, 0.55, 0.04, 0.08, -0.83, 1.00, -0.01, -0.00, 0.05, 
25.29, 810.56, 23.76, 74.77, 0.00, 1843.38, 6047.84, 0.30, -0.34, 9.65, -0.00, 0.02, -0.01, -19.12, -7.00, -37.94, 0.30, -0.27, -0.00, 0.09, -0.15, 9.66, 0.55, -0.01, 0.01, -0.83, 0.55, 0.04, 0.08, -0.83, 1.00, -0.01, -0.00, 0.04, 
25.35, 810.55, 23.77, 74.78, 0.00, 1843.50, 6048.23, 0.30, -0.34, 9.65, 0.01, 0.01, -0.02, -19.12, -7.00, -37.94, 0.30, -0.27, -0.00, 0.09, -0.15, 9.66, 0.55, -0.01, 0.01, -0.83, 0.55, 0.04, 0.08, -0.83, 1.00, -0.01, -0.00, 0.04, 
25.43, 810.55, 23.77, 74.78, 0.00, 1843.51, 6048.25, 0.30, -0.34, 9.65, 0.01, 0.01, -0.02, -19.12, -7.00, -37.94, 0.30, -0.27, -0.00, 0.09, -0.15, 9.66, 0.55, -0.01, 0.01, -0.83, 0.55, 0.04, 0.08, -0.83, 1.00, -0.01, -0.00, 0.04, 
25.49, 810.55, 23.77, 74.78, 0.00, 1843.55, 6048.39, 0.30, -0.34, 9.65, 0.01, -0.01, 0.01, -19.12, -7.00, -37.94, 0.30, -0.27, -0.00, 0.09, -0.15, 9.66, 0.55, -0.01, 0.01, -0.83, 0.55, 0.04, 0.08, -0.83, 1.00, -0.01, -0.00, 0.04, 
25.56, 810.55, 23.77, 74.78, 0.00, 1843.49, 6048.18, 0.08, -0.38, 9.65, 0.01, -0.01, 0.01, -19.12, -7.00, -37.94, 0.30, -0.27, -0.00, 0.09, -0.15, 9.66, 0.55, -0.01, 0.01, -0.83, 0.55, 0.04, 0.08, -0.83, 1.00, -0.01, -0.00, 0.04, 
25.64, 810.56, 23.77, 74.78, 0.00, 1843.45, 6048.05, 0.08, -0.38, 9.65, -0.01, 0.02, 0.05, -19.12, -7.00, -37.94, 0.30, -0.27, -0.00, 0.09, -0.15, 9.66, 0.55, -0.01, 0.01, -0.83, 0.55, 0.04, 0.08, -0.83, 1.00, -0.01, -0.00, 0.04, 
25.72, 810.56, 23.77, 74.78, 0.00, 1843.43, 6048.01, 0.08, -0.38, 9.65, -0.01, 0.01, -0.04, -19.12, -7.00, -37.94, 0.30, -0.27, -0.00, 0.09, -0.15, 9.66, 0.55, -0.01, 0.01, -0.83, 0.55, 0.04, 0.08, -0.83, 1.00, -0.01, -0.00, 0.04, 
25.78, 810.56, 23.77, 74.78, 0.00, 1843.45, 6048.07, 0.08, -0.38, 9.65, -0.01, -0.00, 0.02, -19.12, -7.00, -37.94, 0.30, -0.27, -0.00, 0.09, -0.15, 9.66, 0.55, -0.01, 0.01, -0.83, 0.55, 0.04, 0.08, -0.83, 1.00, -0.01, -0.00, 0.04, 
25.85, 810.56, 23.77, 74.78, 0.00, 1843.42, 6047.97, 0.08, -0.38, 9.65, -0.01, -0.00, 0.02, -19.12, -7.00, -37.94, 0.30, -0.27, -0.00, 0.09, -0.15, 9.66, 0.55, -0.01, 0.01, -0.83, 0.55, 0.04, 0.08, -0.83, 1.00, -0.01, -0.00, 0.04, 
25.91, 810.56, 23.77, 74.78, 0.00, 1843.39, 6047.86, 0.08, -0.38, 9.65, -0.01, -0.00, 0.02, -19.12, -7.00, -37.94, 0.30, -0.27, -0.00, 0.09, -0.15, 9.66, 0.55, -0.01, 0.01, -0.83, 0.55, 0.04, 0.08, -0.83, 1.00, -0.01, -0.00, 0.04, 
25.99, 810.57, 23.77, 74.78, 0.00, 1843.33, 6047.66, 0.08, -0.38, 9.65, 0.00, 0.00, -0.00, -19.12, -7.00, -37.94, 0.30, -0.27, -0.00, 0.09, -0.15, 9.66, 0.55, -0.01, 0.01, -0.83, 0.55, 0.04, 0.08, -0.83, 1.00, -0.01, -0.00, 0.04, 
26.05, 810.57, 23.77, 74.79, 0.00, 1843.32, 6047.64, 0.08, -0.38, 9.65, 0.00, 0.00, -0.00, -19.12, -7.00, -37.94, 0.30, -0.27, -0.00, 0.10, -0.14, 9.65, 0.55, -0.01, 0.01, -0.83, 0.55, 0.04, 0.08, -0.83, 1.00, -0.01, -0.00, 0.04, 
26.13, 810.58, 23.77, 74.79, 0.00, 1843.27, 6047.47, 0.08, -0.38, 9.65, 0.00, 0.00, -0.00, -19.12, -7.00, -37.94, 0.30, -0.27, -0.00, 0.10, -0.14, 9.65, 0.55, -0.01, 0.01, -0.83, 0.55, 0.04, 0.08, -0.83, 1.00, -0.01, -0.00, 0.04, 
26.19, 810.58, 23.77, 74.79, 0.00, 1843.22, 6047.31, 0.08, -0.38, 9.65, 0.00, 0.00, -0.00, -19.12, -7.00, -37.94, 0.30, -0.27, -0.00, 0.10, -0.14, 9.65, 0.55, -0.01, 0.01, -0.83, 0.55, 0.04, 0.08, -0.83, 1.00, -0.01, -0.00, 0.04, 
26.27, 810.58, 23.77, 74.79, 0.00, 1843.20, 6047.24, 0.27, -0.19, 9.65, 0.00, 0.00, -0.00, -19.12, -7.00, -37.94, 0.30, -0.27, -0.00, 0.10, -0.14, 9.65, 0.55, -0.01, 0.01, -0.83, 0.55, 0.04, 0.08, -0.83, 1.00, -0.01, -0.00, 0.04, 
26.33, 810.58, 23.77, 74.79, 0.00, 1843.26, 6047.42, 0.27, -0.19, 9.65, 0.00, 0.00, -0.00, -19.12, -7.00, -37.94, -0.23, -0.06, 0.00, 0.10, -0.14, 9.65, 0.55, -0.01, 0.01, -0.83, 0.55, 0.04, 0.08, -0.83, 1.00, -0.01, -0.00, 0.04, 
26.40, 810.57, 23.77, 74.79, 0.00, 1843.28, 6047.52, 0.27, -0.19, 9.65, 0.00, 0.00, -0.00, -19.12, -7.00, -37.94, -0.02, 0.28, 0.00, 0.10, -0.14, 9.65, 0.55, -0.01, 0.01, -0.83, 0.55, 0.04, 0.08, -0.83, 1.00, -0.01, -0.00, 0.04, 
26.46, 810.57, 23.77, 74.79, 0.00, 1843.33, 6047.67, 0.27, -0.19, 9.65, 0.00, 0.00, -0.00, -19.12, -7.00, -37.94, -0.02, 0.28, 0.00, 0.10, -0.14, 9.65, 0.55, -0.01, 0.01, -0.83, 0.55, 0.04, 0.08, -0.83, 1.00, -0.01, -0.01, 0.05, 
26.54, 810.57, 23.77, 74.79, 0.00, 1843.35, 6047.72, 0.27, -0.19, 9.65, -0.00, 0.00, -0.02, -19.12, -7.00, -37.94, -0.02, 0.28, 0.00, 0.10, -0.14, 9.65, 0.55, -0.01, 0.01, -0.83, 0.55, 0.04, 0.08, -0.83, 1.00, -0.01, -0.01, 0.05, 
26.60, 810.57, 23.78, 74.80, 0.00, 1843.30, 6047.57, 0.27, -0.19, 9.65, -0.00, 0.00, -0.02, -19.12, -7.00, -37.94, -0.02, 0.28, 0.00, 0.10, -0.14, 9.65, 0.55, -0.01, 0.00, -0.84, 0.55, 0.04, 0.08, -0.83, 1.00, -0.01, -0.01, 0.05, 
26.68, 810.57, 23.78, 74.80, 0.00, 1843.32, 6047.64, 0.27, -0.19, 9.65, -0.00, 0.00, -0.02, -19.12, -7.00, -37.94, -0.02, 0.28, 0.00, 0.10, -0.14, 9.65, 0.55, -0.01, 0.00, -0.84, 0.55, 0.04, 0.08, -0.83, 1.00, -0.01, -0.01, 0.05, 
26.74, 810.57, 23.78, 74.80, 0.00, 1843.32, 6047.65, 0.08, -0.27, 9.61, -0.00, 0.00, -0.02, -19.12, -7.00, -37.94, -0.02, 0.28, 0.00, 0.10, -0.14, 9.65, 0.55, -0.01, 0.00, -0.84, 0.55, 0.04, 0.08, -0.83, 1.00, -0.01, -0.01, 0.05, 
26.81, 810.57, 23.78, 74.80, 0.00, 1843.34, 6047.69, 0.08, -0.27, 9.61, -0.00, 0.00, -0.02, -19.12, -7.00, -37.94, -0.02, 0.28, 0.00, 0.10, -0.14, 9.65, 0.55, -0.01, 0.00, -0.84, 0.55, 0.03, 0.06, -0.83, 1.00, -0.01, -0.01, 0.05, 
26.88, 810.57, 23.78, 74.80, 0.00, 1843.30, 6047.57, 0.08, -0.27, 9.61, -0.00, 0.00, -0.02, -19.12, -7.00, -37.94, -0.02, 0.28, 0.00, 0.10, -0.14, 9.65, 0.55, -0.01, 0.00, -0.84, 0.55, 0.03, 0.06, -0.83, 1.00, -0.01, -0.01, 0.05, 
26.95, 810.57, 23.78, 74.80, 0.00, 1843.34, 6047.71, 0.08, -0.27, 9.61, -0.00, 0.00, -0.02, -19.12, -7.00, -37.94, -0.02, 0.28, 0.00, 0.10, -0.14, 9.65, 0.55, -0.01, 0.00, -0.84, 0.55, 0.03, 0.06, -0.83, 1.00, -0.01, -0.01, 0.05, 
27.02, 810.58, 23.78, 74.80, 0.00, 1843.25, 6047.40, 0.08, -0.27, 9.61, -0.00, 0.00, -0.02, -18.69, -7.75, -38.81, -0.02, 0.28, 0.00, 0.10, -0.14, 9.65, 0.55, -0.01, 0.00, -0.84, 0.55, 0.03, 0.06, -0.83, 1.00, -0.01, -0.01, 0.05, 
27.09, 810.57, 23.78, 74.80, 0.00, 1843.30, 6047.59, 0.08, -0.27, 9.61, -0.00, 0.00, -0.02, -18.69, -7.75, -38.81, -0.02, 0.28, 0.00, 0.10, -0.14, 9.65, 0.55, -0.01, 0.00, -0.84, 0.55, 0.03, 0.06, -0.83, 1.00, -0.01, -0.01, 0.05, 
27.16, 810.58, 23.78, 74.81, 0.00, 1843.28, 6047.49, 0.08, -0.27, 9.61, -0.00, 0.00, -0.02, -18.69, -7.75, -38.81, -0.02, 0.28, 0.00, 0.10, -0.14, 9.65, 0.55, -0.01, 0.00, -0.84, 0.55, 0.03, 0.06, -0.83, 1.00, -0.01, -0.01, 0.05, 
27.23, 810.58, 23.78, 74.81, 0.00, 1843.23, 6047.33, 0.08, -0.27, 9.61, -0.00, 0.00, -0.02, -18.69, -7.75, -38.81, -0.02, 0.28, 0.00, 0.13, -0.16, 9.66, 0.55, -0.01, 0.00, -0.84, 0.55, 0.03, 0.06, -0.83, 1.00, -0.01, -0.01, 0.05, 
27.29, 810.59, 23.78, 74.81, 0.00, 1843.14, 6047.04, 0.08, -0.27, 9.61, -0.00, -0.00, 0.02, -18.69, -7.75, -38.81, -0.02, 0.28, 0.00, 0.13, -0.16, 9.66, 0.55, -0.01, 0.00, -0.84, 0.55, 0.03, 0.06, -0.83, 1.00, -0.01, -0.01, 0.05, 
27.37, 810.59, 23.78, 74.81, 0.00, 1843.16, 6047.10, 0.08, -0.27, 9.61, -0.00, -0.00, 0.02, -18.69, -7.75, -38.81, -0.02, 0.28, 0.00, 0.13, -0.16, 9.66, 0.55, -0.01, 0.00, -0.84, 0.55, 0.03, 0.06, -0.83, 1.00, -0.01, -0.01, 0.05, 
27.43, 810.59, 23.78, 74.81, 0.00, 1843.16, 6047.11, 0.08, -0.27, 9.61, -0.00, -0.00, 0.02, -18.69, -7.75, -38.81, -0.02, 0.28, 0.00, 0.13, -0.16, 9.66, 0.55, -0.01, 0.00, -0.84, 0.55, 0.03, 0.06, -0.83, 1.00, -0.01, -0.01, 0.05, 
27.50, 810.59, 23.79, 74.81, 0.00, 1843.15, 6047.09, 0.08, -0.27, 9.61, -0.00, -0.00, 0.02, -18.69, -7.75, -38.81, -0.02, 0.28, 0.00, 0.13, -0.16, 9.66, 0.55, -0.01, 0.00, -0.84, 0.55, 0.03, 0.06, -0.83, 1.00, -0.01, -0.01, 0.05, 
27.57, 810.58, 23.79, 74.82, 0.00, 1843.21, 6047.29, 0.08, -0.27, 9.61, 0.01, 0.00, 0.03, -18.69, -7.75, -38.81, -0.02, 0.28, 0.00, 0.13, -0.16, 9.66, 0.55, -0.01, 0.00, -0.84, 0.55, 0.03, 0.06, -0.83, 1.00, -0.01, -0.01, 0.05, 
27.64, 810.58, 23.79, 74.82, 0.00, 1843.25, 6047.41, 0.08, -0.27, 9.61, 0.01, 0.00, 0.03, -18.69, -7.75, -38.81, -0.02, 0.28, 0.00, 0.13, -0.16, 9.66, 0.55, -0.01, 0.00, -0.84, 0.55, 0.03, 0.06, -0.83, 1.00, -0.01, -0.01, 0.05, 
27.70, 810.58, 23.79, 74.82, 0.00, 1843.20, 6047.23, 0.08, -0.27, 9.61, 0.01, 0.00, 0.04, -18.69, -7.75, -38.81, -0.02, 0.28, 0.00, 0.13, -0.16, 9.66, 0.55, -0.01, 0.00, -0.84, 0.55, 0.03, 0.06, -0.83, 1.00, -0.01, -0.01, 0.05, 
27.78, 810.58, 23.79, 74.82, 0.00, 1843.20, 6047.25, 0.08, -0.27, 9.61, 0.01, 0.00, 0.04, -18.69, -7.75, -38.81, -0.02, 0.28, 0.00, 0.13, -0.18, 9.66, 0.55, -0.01, 0.00, -0.84, 0.55, 0.03, 0.06, -0.83, 1.00, -0.01, -0.01, 0.05, 
27.84, 810.58, 23.79, 74.82, 0.00, 1843.21, 6047.29, 0.08, -0.27, 9.61, 0.01, 0.00, 0.04, -18.69, -7.75, -38.81, -0.02, 0.28, 0.00, 0.13, -0.18, 9.66, 0.55, -0.01, 0.00, -0.84, 0.55, 0.03, 0.06, -0.83, 1.00, -0.01, -0.01, 0.05, 
27.92, 810.58, 23.79, 74.82, 0.00, 1843.26, 6047.44, 0.08, -0.27, 9.61, 0.01, 0.00, 0.04, -18.69, -7.75, -38.81, -0.02, 0.28, 0.00, 0.13, -0.19, 9.66, 0.55, -0.01, 0.00, -0.84, 0.55, 0.03, 0.06, -0.83, 1.00, -0.01, -0.01, 0.05, 
27.98, 810.59, 23.79, 74.82, 0.00, 1843.14, 6047.03, 0.42, -0.23, 9.65, 0.01, 0.00, 0.04, -18.69, -7.75, -38.81, -0.02, 0.28, 0.00, 0.13, -0.19, 9.66, 0.55, -0.01, 0.00, -0.84, 0.55, 0.03, 0.06, -0.83, 1.00, -0.01, -0.01, 0.05, 
28.06, 810.59, 23.79, 74.82, 0.00, 1843.11, 6046.95, 0.42, -0.23, 9.65, 0.01, 0.00, 0.04, -18.69, -7.75, -38.81, -0.02, 0.28, 0.00, 0.13, -0.19, 9.66, 0.55, -0.01, 0.00, -0.84, 0.55, 0.03, 0.06, -0.83, 1.00, -0.01, -0.01, 0.05, 
28.12, 810.59, 23.79, 74.82, 0.00, 1843.15, 6047.08, 0.42, -0.23, 9.65, 0.01, 0.00, 0.04, -18.69, -7.75, -38.81, -0.02, 0.28, 0.00, 0.13, -0.19, 9.66, 0.55, -0.01, 0.00, -0.84, 0.55, 0.03, 0.06, -0.83, 1.00, -0.01, -0.01, 0.05, 
28.19, 810.58, 23.79, 74.82, 0.00, 1843.21, 6047.28, 0.42, -0.23, 9.65, 0.02, -0.00, -0.03, -18.69, -7.75, -38.81, -0.02, 0.28, 0.00, 0.13, -0.19, 9.66, 0.55, -0.01, 0.00, -0.84, 0.55, 0.03, 0.06, -0.83, 1.00, -0.01, -0.01, 0.05, 
28.25, 810.59, 23.79, 74.83, 0.00, 1843.15, 6047.08, 0.42, -0.23, 9.65, 0.02, -0.00, -0.03, -18.69, -7.75, -38.81, -0.02, 0.28, 0.00, 0.13, -0.19, 9.66, 0.55, -0.01, 0.00, -0.84, 0.55, 0.03, 0.06, -0.83, 1.00, -0.01, -0.01, 0.05, 
28.33, 810.58, 23.79, 74.83, 0.00, 1843.21, 6047.28, 0.42, -0.23, 9.65, 0.02, -0.00, -0.03, -18.69, -7.75, -38.81, -0.02, 0.28, 0.00, 0.12, -0.17, 9.66, 0.55, -0.01, 0.00, -0.84, 0.55, 0.03, 0.06, -0.83, 1.00, -0.01, -0.01, 0.05, 
28.39, 810.58, 23.79, 74.83, 0.00, 1843.24, 6047.39, 0.42, -0.23, 9.65, 0.02, -0.00, -0.03, -18.69, -7.75, -38.81, -0.02, 0.28, 0.00, 0.12, -0.17, 9.66, 0.55, -0.01, 0.00, -0.84, 0.55, 0.03, 0.06, -0.83, 1.00, -0.01, -0.01, 0.05, 
28.47, 810.58, 23.79, 74.83, 0.00, 1843.21, 6047.26, 0.42, -0.23, 9.65, 0.02, -0.00, -0.03, -18.69, -7.75, -38.81, -0.02, 0.28, 0.00, 0.12, -0.17, 9.66, 0.55, -0.01, 0.00, -0.84, 0.55, 0.03, 0.06, -0.83, 1.00, -0.01, -0.01, 0.05, 
28.53, 810.58, 23.79, 74.83, 0.00, 1843.25, 6047.42, 0.42, -0.23, 9.65, 0.02, -0.00, -0.03, -19.44, -7.69, -38.06, -0.02, 0.28, 0.00, 0.12, -0.17, 9.66, 0.55, -0.01, 0.00, -0.84, 0.55, 0.03, 0.06, -0.83, 1.00, -0.01, -0.01, 0.05, 
28.61, 810.59, 23.79, 74.83, 0.00, 1843.13, 6047.03, -0.08, 0.04, 9.69, 0.02, -0.00, -0.03, -19.44, -7.69, -38.06, -0.02, 0.28, 0.00, 0.12, -0.17, 9.66, 0.55, -0.01, 0.00, -0.84, 0.55, 0.03, 0.06, -0.83, 1.00, -0.01, -0.01, 0.05, 
28.67, 810.59, 23.80, 74.83, 0.00, 1843.11, 6046.96, -0.08, 0.04, 9.69, 0.02, -0.00, -0.03, -19.44, -7.69, -38.06, 0.27, -0.45, 0.04, 0.12, -0.17, 9.66, 0.55, -0.01, 0.00, -0.84, 0.55, 0.03, 0.06, -0.83, 1.00, -0.01, -0.01, 0.05, 
28.75, 810.60, 23.80, 74.83, 0.00, 1843.01, 6046.62, 0.23, -0.30, 9.69, 0.02, -0.00, -0.03, -19.44, -7.69, -38.06, 0.27, -0.45, 0.04, 0.12, -0.17, 9.66, 0.55, -0.01, 0.00, -0.84, 0.55, 0.03, 0.06, -0.83, 1.00, -0.01, -0.01, 0.05, 
28.81, 810.60, 23.80, 74.83, 0.00, 1843.01, 6046.61, 0.23, -0.30, 9.69, 0.02, -0.00, -0.03, -19.44, -7.69, -38.06, 0.27, -0.45, 0.04, 0.13, -0.18, 9.66, 0.55, -0.01, 0.00, -0.84, 0.55, 0.03, 0.06, -0.83, 1.00, -0.01, -0.01, 0.05, 
28.88, 810.61, 23.80, 74.83, 0.00, 1842.91, 6046.29, 0.23, -0.30, 9.69, 0.02, -0.00, -0.03, -19.44, -7.69, -38.06, 0.27, -0.45, 0.04, 0.13, -0.18, 9.66, 0.55, -0.01, 0.00, -0.84, 0.55, 0.03, 0.07, -0.83, 1.00, -0.01, -0.01, 0.05, 
28.94, 810.61, 23.80, 74.84, 0.00, 1842.91, 6046.30, 0.23, -0.30, 9.69, 0.02, -0.00, -0.03, -19.44, -7.69, -38.06, 0.27, -0.45, 0.04, 0.13, -0.18, 9.66, 0.55, -0.01, 0.00, -0.84, 0.55, 0.03, 0.07, -0.83, 1.00, -0.01, -0.01, 0.05, 
29.02, 810.61, 23.80, 74.84, 0.00, 1842.98, 6046.52, 0.23, -0.30, 9.69, 0.02, -0.00, -0.03, -19.44, -7.69, -38.06, 0.27, -0.45, 0.04, 0.13, -0.18, 9.66, 0.55, -0.01, 0.00, -0.84, 0.55, 0.03, 0.07, -0.83, 1.00, -0.01, -0.01, 0.05, 
29.08, 810.61, 23.80, 74.84, 0.00, 1842.94, 6046.39, 0.23, -0.30, 9.69, 0.02, -0.00, -0.03, -19.87, -7.25, -38.50, 0.27, -0.45, 0.04, 0.13, -0.18, 9.66, 0.55, -0.01, 0.00, -0.84, 0.55, 0.03, 0.07, -0.83, 1.00, -0.01, -0.01, 0.05, 
29.16, 810.61, 23.80, 74.84, 0.00, 1842.94, 6046.38, 0.23, -0.30, 9.69, 0.02, -0.00, -0.03, -19.87, -7.25, -38.50, 0.27, -0.45, 0.04, 0.13, -0.18, 9.66, 0.55, -0.01, 0.00, -0.84, 0.55, 0.03, 0.07, -0.83, 1.00, -0.01, -0.01, 0.05, 
29.22, 810.61, 23.80, 74.84, 0.00, 1842.96, 6046.44, 0.23, -0.30, 9.69, 0.02, -0.00, -0.03, -19.87, -7.25, -38.50, 0.27, -0.45, 0.04, 0.13, -0.18, 9.66, 0.55, -0.01, 0.00, -0.84, 0.55, 0.03, 0.07, -0.83, 1.00, -0.01, -0.01, 0.05, 
29.30, 810.61, 23.80, 74.84, 0.00, 1842.93, 6046.37, 0.23, -0.30, 9.69, 0.02, -0.00, -0.03, -19.87, -7.25, -38.50, 0.27, -0.45, 0.04, 0.13, -0.18, 9.66, 0.55, -0.01, 0.00, -0.84, 0.55, 0.03, 0.07, -0.83, 1.00, -0.01, -0.01, 0.05, 
29.36, 810.61, 23.80, 74.84, 0.00, 1842.92, 6046.34, 0.61, -0.38, 9.69, 0.02, -0.00, -0.03, -19.87, -7.25, -38.50, 0.27, -0.45, 0.04, 0.13, -0.18, 9.66, 0.55, -0.01, 0.00, -0.84, 0.55, 0.03, 0.07, -0.83, 1.00, -0.01, -0.01, 0.05, 
29.44, 810.61, 23.80, 74.84, 0.00, 1842.94, 6046.38, 0.61, -0.38, 9.69, 0.01, 0.01, 0.11, -19.87, -7.25, -38.50, 0.27, -0.45, 0.04, 0.13, -0.18, 9.66, 0.55, -0.01, 0.00, -0.84, 0.55, 0.03, 0.07, -0.83, 1.00, -0.01, -0.01, 0.05, 
29.50, 810.61, 23.80, 74.84, 0.00, 1842.91, 6046.29, 0.61, -0.38, 9.69, 0.02, 0.00, -0.34, -19.87, -7.25, -38.50, 0.27, -0.45, 0.04, 0.13, -0.18, 9.66, 0.55, -0.01, 0.00, -0.84, 0.55, 0.03, 0.07, -0.83, 1.00, -0.01, -0.01, 0.05, 
29.57, 810.61, 23.80, 74.84, 0.00, 1842.96, 6046.46, 0.61, -0.38, 9.69, 0.02, 0.00, -0.34, -19.44, -7.62, -40.06, 0.27, -0.45, 0.04, 0.13, -0.18, 9.66, 0.55, -0.01, 0.00, -0.84, 0.55, 0.03, 0.07, -0.83, 1.00, -0.01, -0.01, 0.05, 
29.63, 810.61, 23.80, 74.85, 0.00, 1842.94, 6046.40, 0.61, -0.38, 9.69, 0.02, 0.00, -0.34, -20.25, -7.19, -38.88, 0.27, -0.45, 0.04, 0.13, -0.18, 9.66, 0.55, -0.01, 0.00, -0.84, 0.55, 0.03, 0.07, -0.83, 1.00, -0.01, -0.01, 0.05, 
29.71, 810.60, 23.80, 74.85, 0.00, 1843.01, 6046.61, 0.00, -0.61, 9.69, 0.02, 0.00, -0.34, -20.25, -7.19, -38.88, 0.27, -0.45, 0.04, 0.13, -0.18, 9.66, 0.55, -0.01, 0.00, -0.84, 0.55, 0.03, 0.07, -0.83, 1.00, -0.01, -0.01, 0.05, 
29.77, 810.61, 23.80, 74.85, 0.00, 1842.98, 6046.53, 0.00, -0.61, 9.69, 0.02, 0.00, -0.34, -20.25, -7.19, -38.88, 0.27, -0.45, 0.04, 0.13, -0.18, 9.66, 0.55, -0.01, 0.00, -0.84, 0.55, 0.03, 0.07, -0.83, 1.00, -0.01, -0.01, 0.04, 
29.85, 810.60, 23.80, 74.85, 0.00, 1843.01, 6046.61, 0.00, -0.61, 9.69, 0.02, 0.00, -0.34, -20.25, -7.19, -38.88, 0.27, -0.45, 0.04, 0.10, -0.20, 9.66, 0.55, -0.01, 0.00, -0.84, 0.55, 0.03, 0.07, -0.83, 1.00, -0.01, -0.01, 0.04, 
29.91, 810.60, 23.81, 74.85, 0.00, 1843.00, 6046.60, 0.00, -0.61, 9.69, 0.01, -0.01, -0.13, -20.25, -7.19, -38.88, 0.27, -0.45, 0.04, 0.10, -0.20, 9.66, 0.55, -0.01, 0.00, -0.84, 0.55, 0.03, 0.07, -0.83, 1.00, -0.01, -0.01, 0.04, 
29.98, 810.60, 23.81, 74.85, 0.00, 1843.08, 6046.85, 0.00, -0.61, 9.69, 0.01, -0.01, -0.13, -20.25, -7.19, -38.88, 0.27, -0.45, 0.04, 0.10, -0.20, 9.66, 0.55, -0.01, 0.00, -0.84, 0.55, 0.03, 0.07, -0.83, 1.00, -0.01, -0.01, 0.04, 
30.06, 810.58, 23.81, 74.85, 0.00, 1843.22, 6047.31, 0.00, -0.61, 9.69, 0.02, 0.01, 0.07, -20.25, -7.19, -38.88, 0.27, -0.45, 0.04, 0.10, -0.20, 9.66, 0.55, -0.01, 0.00, -0.84, 0.55, 0.03, 0.07, -0.83, 1.00, -0.01, -0.01, 0.04, 
30.13, 810.58, 23.81, 74.85, 0.00, 1843.21, 6047.27, 0.00, -0.61, 9.69, 0.02, 0.01, 0.07, -20.25, -7.19, -38.88, 0.27, -0.45, 0.04, 0.10, -0.20, 9.66, 0.55, -0.01, 0.00, -0.84, 0.55, 0.03, 0.07, -0.83, 1.00, -0.01, -0.01, 0.04, 
30.20, 810.58, 23.81, 74.85, 0.00, 1843.27, 6047.47, 0.00, -0.61, 9.69, 0.02, 0.01, 0.07, -20.25, -7.19, -38.88, 0.27, -0.45, 0.04, 0.10, -0.20, 9.66, 0.55, -0.01, 0.00, -0.84, 0.55, 0.03, 0.07, -0.83, 1.00, -0.01, -0.01, 0.04, 
30.27, 810.59, 23.80, 74.85, 0.00, 1843.17, 6047.16, 0.00, -0.61, 9.69, 0.02, 0.01, 0.07, -20.25, -7.19, -38.88, 0.27, -0.45, 0.04, 0.10, -0.20, 9.66, 0.55, -0.01, 0.00, -0.84, 0.55, 0.03, 0.07, -0.83, 1.00, -0.01, -0.01, 0.04, 
30.33, 810.59, 23.81, 74.85, 0.00, 1843.08, 6046.86, 0.00, -0.61, 9.69, 0.02, 0.01, 0.07, -20.25, -7.19, -38.88, 0.27, -0.45, 0.04, 0.10, -0.20, 9.66, 0.55, -0.01, 0.00, -0.84, 0.55, 0.03, 0.07, -0.83, 1.00, -0.01, -0.01, 0.04, 
30.41, 810.60, 23.81, 74.85, 0.00, 1843.03, 6046.67, 0.00, -0.61, 9.69, 0.02, 0.01, 0.07, -20.25, -7.19, -38.88, 0.27, -0.45, 0.04, 0.10, -0.20, 9.66, 0.55, -0.01, 0.00, -0.84, 0.55, 0.03, 0.07, -0.83, 1.00, -0.01, -0.01, 0.04, 
30.47, 810.60, 23.81, 74.85, 0.00, 1843.06, 6046.80, 0.00, -0.61, 9.69, -0.00, 0.01, -0.09, -20.25, -7.19, -38.88, 0.27, -0.45, 0.04, 0.10, -0.20, 9.66, 0.55, -0.01, 0.00, -0.84, 0.55, 0.03, 0.07, -0.83, 1.00, -0.01, -0.01, 0.04, 
30.55, 810.60, 23.81, 74.86, 0.00, 1843.05, 6046.75, 0.00, -0.61, 9.69, -0.00, 0.01, -0.09, -20.25, -7.19, -38.88, 0.22, -0.22, 0.04, 0.10, -0.20, 9.66, 0.55, -0.01, 0.00, -0.84, 0.55, 0.03, 0.07, -0.83, 1.00, -0.01, -0.01, 0.04, 
30.61, 810.60, 23.81, 74.86, 0.00, 1843.05, 6046.75, 0.00, -0.61, 9.69, -0.00, 0.01, -0.09, -20.25, -7.19, -38.88, 0.22, -0.22, 0.04, 0.10, -0.20, 9.66, 0.55, -0.01, 0.00, -0.84, 0.55, 0.03, 0.07, -0.83, 1.00, -0.01, -0.01, 0.04, 
30.70, 810.60, 23.81, 74.86, 0.00, 1843.07, 6046.82, 0.00, -0.61, 9.69, 0.00, -0.01, -0.06, -20.25, -7.19, -38.88, 0.22, -0.22, 0.04, 0.10, -0.20, 9.66, 0.55, -0.01, 0.00, -0.84, 0.55, 0.03, 0.07, -0.83, 1.00, -0.01, -0.01, 0.04, 
30.76, 810.59, 23.81, 74.85, 0.00, 1843.11, 6046.96, 0.00, -0.61, 9.69, -0.01, -0.01, 0.01, -20.25, -7.19, -38.88, 0.22, -0.22, 0.04, 0.10, -0.20, 9.66, 0.55, -0.01, 0.00, -0.84, 0.55, 0.03, 0.07, -0.83, 1.00, -0.01, -0.01, 0.04, 
30.84, 810.59, 23.81, 74.85, 0.00, 1843.12, 6046.99, 0.00, -0.61, 9.69, -0.01, 0.01, 0.06, -20.25, -7.19, -38.88, 0.22, -0.22, 0.04, 0.10, -0.20, 9.66, 0.55, -0.01, 0.00, -0.84, 0.55, 0.03, 0.07, -0.83, 1.00, -0.01, -0.01, 0.04, 
30.90, 810.59, 23.81, 74.86, 0.00, 1843.12, 6046.99, 0.00, -0.61, 9.69, -0.01, 0.01, 0.06, -20.25, -7.19, -38.88, 0.22, -0.22, 0.04, 0.10, -0.20, 9.66, 0.55, -0.01, 0.00, -0.84, 0.55, 0.03, 0.07, -0.83, 1.00, -0.01, -0.01, 0.04, 
30.98, 810.59, 23.81, 74.86, 0.00, 1843.09, 6046.87, 0.00, -0.61, 9.69, -0.01, 0.01, 0.06, -20.25, -7.19, -38.88, 0.22, -0.22, 0.04, 0.10, -0.20, 9.66, 0.55, -0.01, 0.00, -0.84, 0.55, 0.03, 0.07, -0.83, 1.00, -0.01, -0.01, 0.04, 
31.04, 810.60, 23.81, 74.86, 0.00, 1843.00, 6046.58, 0.00, -0.61, 9.69, -0.01, 0.01, 0.06, -20.25, -7.19, -38.88, 0.22, -0.22, 0.04, 0.10, -0.20, 9.66, 0.55, -0.01, 0.00, -0.84, 0.55, 0.03, 0.07, -0.83, 1.00, -0.01, -0.01, 0.04, 
31.11, 810.60, 23.81, 74.86, 0.00, 1843.01, 6046.61, 0.00, -0.61, 9.69, -0.01, 0.01, 0.06, -20.25, -7.19, -38.88, 0.22, -0.22, 0.04, 0.10, -0.20, 9.66, 0.55, -0.01, 0.00, -0.84, 0.55, 0.03, 0.07, -0.83, 1.00, -0.01, -0.01, 0.04, 
31.18, 810.61, 23.81, 74.86, 0.00, 1842.90, 6046.27, 0.00, -0.61, 9.69, -0.01, 0.01, 0.06, -20.25, -7.19, -38.88, 0.22, -0.22, 0.04, 0.09, -0.16, 9.66, 0.55, -0.01, 0.00, -0.84, 0.55, 0.03, 0.07, -0.83, 1.00, -0.01, -0.01, 0.04, 
31.25, 810.60, 23.81, 74.86, 0.00, 1843.07, 6046.80, 0.00, -0.61, 9.69, -0.01, 0.01, 0.06, -20.25, -7.19, -38.88, 0.22, -0.22, 0.04, 0.09, -0.16, 9.66, 0.55, -0.01, 0.00, -0.84, 0.55, 0.03, 0.07, -0.83, 1.00, -0.01, -0.01, 0.04, 
31.31, 810.59, 23.81, 74.86, 0.00, 1843.09, 6046.87, 0.00, -0.61, 9.69, -0.01, 0.01, 0.06, -20.25, -7.19, -38.88, 0.22, -0.22, 0.04, 0.08, -0.16, 9.66, 0.55, -0.01, 0.00, -0.84, 0.55, 0.03, 0.07, -0.83, 1.00, -0.01, -0.01, 0.04, 
31.39, 810.59, 23.81, 74.86, 0.00, 1843.09, 6046.88, 0.00, -0.61, 9.69, -0.00, -0.01, 0.07, -20.25, -7.19, -38.88, 0.22, -0.22, 0.04, 0.08, -0.16, 9.66, 0.55, -0.01, 0.00, -0.84, 0.55, 0.03, 0.07, -0.83, 1.00, -0.01, -0.01, 0.04, 
31.45, 810.59, 23.81, 74.87, 0.00, 1843.13, 6047.02, -0.61, -0.04, 9.61, -0.00, -0.01, 0.07, -20.25, -7.19, -38.88, 0.22, -0.22, 0.04, 0.08, -0.16, 9.66, 0.55, -0.01, 0.00, -0.84, 0.55, 0.03, 0.07, -0.83, 1.00, -0.01, -0.01, 0.04, 
31.52, 810.59, 23.81, 74.87, 0.00, 1843.09, 6046.89, 0.42, -0.80, 9.69, -0.00, -0.01, 0.07, -20.25, -7.19, -38.88, 0.22, -0.22, 0.04, 0.08, -0.16, 9.66, 0.55, -0.01, 0.00, -0.84, 0.55, 0.03, 0.07, -0.83, 1.00, -0.01, -0.01, 0.04, 
31.59, 810.59, 23.82, 74.87, 0.00, 1843.15, 6047.09, 0.42, -0.80, 9.69, -0.00, -0.01, 0.07, -20.25, -7.19, -38.88, 0.22, -0.22, 0.04, 0.08, -0.16, 9.66, 0.55, -0.01, 0.00, -0.84, 0.55, 0.03, 0.07, -0.83, 1.00, -0.01, -0.01, 0.04, 
31.66, 810.59, 23.81, 74.87, 0.00, 1843.13, 6047.03, 0.42, -0.80, 9.69, -0.00, -0.01, 0.07, -20.25, -7.19, -38.88, -0.16, 0.45, -0.00, 0.08, -0.16, 9.66, 0.55, -0.01, 0.00, -0.84, 0.55, 0.03, 0.07, -0.83, 1.00, -0.01, -0.01, 0.04, 
31.73, 810.58, 23.82, 74.87, 0.00, 1843.21, 6047.28, 0.42, -0.80, 9.69, -0.00, -0.01, 0.07, -20.25, -7.19, -38.88, -0.16, 0.45, -0.00, 0.08, -0.16, 9.66, 0.55, -0.01, 0.00, -0.84, 0.55, 0.03, 0.07, -0.83, 1.00, -0.01, -0.01, 0.04, 
31.80, 810.58, 23.81, 74.87, 0.00, 1843.27, 6047.47, 0.42, -0.80, 9.69, -0.00, -0.01, 0.07, -20.25, -7.19, -38.88, 0.22, 0.27, -0.00, 0.08, -0.16, 9.66, 0.55, -0.01, 0.00, -0.84, 0.55, 0.03, 0.07, -0.83, 1.00, -0.01, -0.01, 0.04, 
31.86, 810.57, 23.82, 74.87, 0.00, 1843.36, 6047.78, 0.42, -0.80, 9.69, -0.00, -0.01, 0.07, -20.25, -7.19, -38.88, 0.22, 0.27, -0.00, 0.08, -0.16, 9.66, 0.55, -0.01, 0.00, -0.84, 0.55, 0.03, 0.07, -0.83, 1.00, -0.01, -0.01, 0.04, 
31.94, 810.56, 23.82, 74.87, 0.00, 1843.43, 6048.00, 0.42, -0.80, 9.69, -0.00, -0.01, 0.07, -20.25, -7.19, -38.88, 0.22, 0.27, -0.00, 0.08, -0.16, 9.66, 0.55, -0.01, 0.00, -0.84, 0.55, 0.03, 0.07, -0.83, 1.00, -0.01, -0.01, 0.05, 
32.00, 810.56, 23.82, 74.87, 0.00, 1843.48, 6048.16, 0.42, -0.80, 9.69, -0.00, -0.01, 0.07, -20.25, -7.19, -38.88, 0.22, 0.27, -0.00, 0.08, -0.16, 9.66, 0.55, -0.01, 0.00, -0.84, 0.55, 0.03, 0.07, -0.83, 1.00, -0.01, -0.01, 0.05, 
32.08, 810.55, 23.82, 74.87, 0.00, 1843.49, 6048.19, 0.42, -0.80, 9.69, 0.01, 0.02, 0.12, -20.25, -7.19, -38.88, 0.22, 0.27, -0.00, 0.08, -0.16, 9.66, 0.55, -0.01, 0.00, -0.84, 0.55, 0.03, 0.07, -0.83, 1.00, -0.01, -0.01, 0.05, 
32.14, 810.55, 23.82, 74.87, 0.00, 1843.51, 6048.27, 0.42, -0.80, 9.69, 0.01, 0.02, 0.12, -20.25, -7.19, -38.88, 0.22, 0.27, -0.00, 0.09, -0.17, 9.66, 0.55, -0.01, 0.00, -0.84, 0.55, 0.03, 0.07, -0.83, 1.00, -0.01, -0.01, 0.05, 
32.22, 810.56, 23.82, 74.87, 0.00, 1843.46, 6048.09, 0.42, -0.80, 9.69, 0.01, 0.02, 0.12, -20.25, -7.19, -38.88, 0.22, 0.27, -0.00, 0.09, -0.17, 9.66, 0.55, -0.01, 0.00, -0.84, 0.54, 0.03, 0.07, -0.84, 1.00, -0.01, -0.01, 0.05, 
32.28, 810.56, 23.82, 74.88, 0.00, 1843.40, 6047.89, 0.42, -0.80, 9.69, 0.03, -0.01, 0.02, -20.25, -7.19, -38.88, 0.22, 0.27, -0.00, 0.09, -0.17, 9.66, 0.55, -0.01, 0.00, -0.84, 0.54, 0.03, 0.07, -0.84, 1.00, -0.01, -0.01, 0.05, 
32.35, 810.56, 23.82, 74.88, 0.00, 1843.48, 6048.16, 0.42, -0.80, 9.69, 0.03, -0.01, 0.02, -20.50, -7.56, -38.56, 0.22, 0.27, -0.00, 0.09, -0.17, 9.66, 0.55, -0.01, 0.00, -0.84, 0.54, 0.03, 0.07, -0.84, 1.00, -0.01, -0.01, 0.05, 
32.42, 810.55, 23.82, 74.88, 0.00, 1843.50, 6048.22, 0.42, -0.80, 9.69, -0.02, 0.00, -0.10, -20.50, -7.56, -38.56, 0.22, 0.27, -0.00, 0.09, -0.17, 9.66, 0.55, -0.01, 0.00, -0.84, 0.54, 0.03, 0.07, -0.84, 1.00, -0.01, -0.01, 0.05, 
32.49, 810.56, 23.82, 74.88, 0.00, 1843.41, 6047.92, -0.30, 0.61, 9.61, -0.02, 0.00, -0.10, -20.50, -7.56, -38.56, 0.22, 0.27, -0.00, 0.09, -0.17, 9.66, 0.55, -0.01, 0.00, -0.84, 0.54, 0.03, 0.07, -0.84, 1.00, -0.01, -0.01, 0.05, 
32.56, 810.56, 23.82, 74.88, 0.00, 1843.46, 6048.10, -0.30, 0.61, 9.61, -0.02, 0.00, -0.10, -20.50, -7.56, -38.56, 0.22, 0.27, -0.00, 0.09, -0.17, 9.66, 0.55, -0.01, 0.00, -0.84, 0.54, 0.03, 0.07, -0.84, 1.00, -0.01, -0.01, 0.05, 
32.63, 810.55, 23.82, 74.88, 0.00, 1843.49, 6048.19, -0.30, 0.61, 9.61, -0.02, 0.00, -0.10, -20.50, -7.56, -38.56, 0.22, 0.27, -0.00, 0.09, -0.17, 9.66, 0.55, -0.01, 0.00, -0.84, 0.54, 0.03, 0.07, -0.84, 1.00, -0.01, -0.01, 0.05, 
32.69, 810.55, 23.82, 74.88, 0.00, 1843.55, 6048.40, -0.30, 0.61, 9.61, -0.02, 0.00, -0.10, -20.50, -7.56, -38.56, 0.22, 0.27, -0.00, 0.09, -0.17, 9.66, 0.55, -0.01, 0.00, -0.84, 0.55, 0.03, 0.07, -0.83, 1.00, -0.01, -0.01, 0.05, 
32.77, 810.54, 23.82, 74.88, 0.00, 1843.64, 6048.68, -0.30, 0.61, 9.61, -0.02, 0.00, -0.10, -20.50, -7.56, -38.56, 0.22, 0.27, -0.00, 0.09, -0.17, 9.66, 0.55, -0.01, 0.00, -0.84, 0.55, 0.03, 0.07, -0.83, 1.00, -0.01, -0.01, 0.05, 
32.83, 810.54, 23.82, 74.88, 0.00, 1843.61, 6048.58, -0.30, 0.61, 9.61, -0.02, 0.00, -0.10, -20.50, -7.56, -38.56, 0.22, 0.27, -0.00, 0.11, -0.16, 9.66, 0.55, -0.01, 0.00, -0.84, 0.55, 0.03, 0.07, -0.83, 1.00, -0.01, -0.01, 0.05, 
32.91, 810.55, 23.82, 74.88, 0.00, 1843.54, 6048.35, -0.30, 0.61, 9.61, -0.02, 0.00, -0.10, -20.50, -7.56, -38.56, 0.82, -0.16, 0.07, 0.11, -0.16, 9.66, 0.55, -0.01, 0.00, -0.84, 0.55, 0.03, 0.07, -0.83, 1.00, -0.01, -0.01, 0.05, 
32.97, 810.56, 23.82, 74.88, 0.00, 1843.47, 6048.12, -0.30, 0.61, 9.61, -0.02, 0.00, -0.10, -20.50, -7.56, -38.56, 0.82, -0.16, 0.07, 0.11, -0.16, 9.66, 0.55, -0.01, 0.00, -0.84, 0.55, 0.03, 0.07, -0.83, 1.00, -0.01, -0.01, 0.04, 
33.04, 810.56, 23.82, 74.88, 0.00, 1843.47, 6048.12, -0.30, 0.61, 9.61, -0.02, 0.00, -0.10, -20.50, -7.56, -38.56, 0.82, -0.16, 0.07, 0.11, -0.16, 9.66, 0.55, -0.01, 0.00, -0.84, 0.55, 0.03, 0.07, -0.83, 1.00, -0.01, -0.01, 0.04, 
33.11, 810.56, 23.82, 74.88, 0.00, 1843.44, 6048.03, -0.30, 0.61, 9.61, -0.02, 0.00, -0.10, -20.50, -7.56, -38.56, 0.82, -0.16, 0.07, 0.11, -0.16, 9.66, 0.55, -0.01, 0.00, -0.84, 0.55, 0.03, 0.07, -0.83, 1.00, -0.01, -0.01, 0.04, 
33.18, 810.56, 23.83, 74.89, 0.00, 1843.44, 6048.03, -0.30, 0.61, 9.61, 0.04, 0.01, -0.05, -20.50, -7.56, -38.56, 0.82, -0.16, 0.07, 0.11, -0.16, 9.66, 0.55, -0.01, 0.00, -0.84, 0.55, 0.03, 0.07, -0.83, 1.00, -0.01, -0.01, 0.04, 
33.24, 810.57, 23.83, 74.89, 0.00, 1843.35, 6047.75, -0.30, 0.61, 9.61, 0.04, 0.01, -0.05, -20.50, -7.56, -38.56, 0.82, -0.16, 0.07, 0.09, -0.17, 9.66, 0.55, -0.01, 0.00, -0.84, 0.55, 0.03, 0.07, -0.83, 1.00, -0.01, -0.01, 0.04, 
33.32, 810.56, 23.83, 74.89, 0.00, 1843.41, 6047.94, -0.30, 0.61, 9.61, 0.01, 0.00, -0.03, -20.50, -7.56, -38.56, 0.82, -0.16, 0.07, 0.09, -0.17, 9.66, 0.55, -0.01, 0.00, -0.84, 0.55, 0.03, 0.07, -0.83, 1.00, -0.01, -0.01, 0.04, 
33.38, 810.56, 23.83, 74.89, 0.00, 1843.41, 6047.93, -0.30, 0.61, 9.61, 0.01, 0.00, -0.03, -20.50, -7.56, -38.56, 0.82, -0.16, 0.07, 0.09, -0.16, 9.66, 0.55, -0.01, 0.00, -0.84, 0.55, 0.03, 0.07, -0.83, 1.00, -0.01, -0.01, 0.04, 
33.46, 810.56, 23.83, 74.89, 0.00, 1843.43, 6048.00, -0.30, 0.61, 9.61, 0.01, 0.00, -0.03, -20.50, -7.56, -38.56, 0.82, -0.16, 0.07, 0.09, -0.16, 9.66, 0.55, -0.01, 0.00, -0.84, 0.55, 0.03, 0.07, -0.83, 1.00, -0.01, -0.01, 0.05, 
33.52, 810.57, 23.83, 74.89, 0.00, 1843.34, 6047.71, -0.30, 0.61, 9.61, 0.01, 0.00, -0.03, -20.50, -7.56, -38.56, 0.82, -0.16, 0.07, 0.09, -0.18, 9.66, 0.55, -0.01, 0.00, -0.84, 0.55, 0.03, 0.07, -0.83, 1.00, -0.01, -0.01, 0.05, 
33.60, 810.57, 23.83, 74.89, 0.00, 1843.34, 6047.72, -0.30, 0.61, 9.61, 0.01, 0.00, -0.03, -20.50, -7.56, -38.56, 0.82, -0.16, 0.07, 0.09, -0.18, 9.66, 0.55, -0.01, 0.00, -0.84, 0.55, 0.03, 0.07, -0.83, 1.00, -0.01, -0.01, 0.05, 
33.66, 810.56, 23.83, 74.89, 0.00, 1843.42, 6047.97, -0.30, 0.61, 9.61, 0.01, 0.00, -0.03, -20.50, -7.56, -38.56, 0.82, -0.16, 0.07, 0.09, -0.18, 9.66, 0.55, -0.01, 0.00, -0.84, 0.55, 0.03, 0.07, -0.83, 1.00, -0.01, -0.01, 0.05, 
33.73, 810.55, 23.83, 74.89, 0.00, 1843.48, 6048.17, -0.30, 0.61, 9.61, 0.01, 0.00, -0.03, -20.50, -7.56, -38.56, 0.82, -0.16, 0.07, 0.09, -0.18, 9.66, 0.55, -0.01, 0.00, -0.84, 0.55, 0.03, 0.07, -0.83, 1.00, -0.01, -0.01, 0.04, 
33.80, 810.55, 23.83, 74.89, 0.00, 1843.56, 6048.43, -0.30, 0.61, 9.61, 0.02, -0.01, -0.04, -20.50, -7.56, -38.56, 0.82, -0.16, 0.07, 0.09, -0.18, 9.66, 0.55, -0.01, 0.00, -0.84, 0.55, 0.03, 0.07, -0.83, 1.00, -0.01, -0.01, 0.04, 
33.87, 810.56, 23.83, 74.90, 0.00, 1843.45, 6048.05, 0.42, 0.04, 9.65, 0.02, -0.01, -0.04, -20.50, -7.56, -38.56, 0.82, -0.16, 0.07, 0.09, -0.18, 9.66, 0.55, -0.01, 0.00, -0.84, 0.55, 0.03, 0.07, -0.83, 1.00, -0.01, -0.01, 0.04, 
33.93, 810.57, 23.83, 74.90, 0.00, 1843.38, 6047.82, 0.42, 0.04, 9.65, 0.02, -0.01, -0.04, -20.50, -7.56, -38.56, 0.82, -0.16, 0.07, 0.11, -0.19, 9.65, 0.55, -0.01, 0.00, -0.84, 0.55, 0.03, 0.07, -0.83, 1.00, -0.01, -0.01, 0.04, 
34.01, 810.55, 23.83, 74.90, 0.00, 1843.49, 6048.21, -0.38, -0.42, 9.61, 0.02, -0.01, -0.04, -20.50, -7.56, -38.56, 0.82, -0.16, 0.07, 0.11, -0.19, 9.65, 0.55, -0.01, 0.00, -0.84, 0.55, 0.03, 0.07, -0.83, 1.00, -0.01, -0.01, 0.04, 
34.07, 810.55, 23.83, 74.90, 0.00, 1843.53, 6048.33, -0.38, -0.42, 9.61, -0.02, -0.01, 0.02, -20.50, -7.56, -38.56, 0.82, -0.16, 0.07, 0.11, -0.19, 9.65, 0.55, -0.01, 0.00, -0.84, 0.55, 0.03, 0.07, -0.83, 1.00, -0.01, -0.01, 0.04, 
34.14, 810.56, 23.83, 74.90, 0.00, 1843.47, 6048.12, 0.00, -0.54, 9.58, -0.02, -0.01, 0.02, -20.50, -7.56, -38.56, 0.82, -0.16, 0.07, 0.11, -0.19, 9.65, 0.55, -0.01, 0.00, -0.84, 0.55, 0.03, 0.07, -0.83, 1.00, -0.01, -0.01, 0.04, 
34.21, 810.56, 23.83, 74.90, 0.00, 1843.41, 6047.92, 0.00, -0.54, 9.58, 0.01, 0.01, 0.27, -20.50, -7.56, -38.56, 0.82, -0.16, 0.07, 0.11, -0.19, 9.65, 0.55, -0.01, 0.00, -0.84, 0.55, 0.03, 0.07, -0.83, 1.00, -0.01, -0.01, 0.04, 
34.28, 810.56, 23.83, 74.90, 0.00, 1843.45, 6048.08, 0.30, -0.38, 9.69, 0.01, 0.01, 0.27, -20.50, -7.56, -38.56, 0.82, -0.16, 0.07, 0.11, -0.19, 9.65, 0.55, -0.01, 0.00, -0.84, 0.55, 0.03, 0.07, -0.83, 1.00, -0.01, -0.01, 0.04, 
34.35, 810.56, 23.84, 74.90, 0.00, 1843.47, 6048.14, 0.30, -0.38, 9.69, 0.01, 0.01, 0.27, -20.50, -7.56, -38.56, 0.82, -0.16, 0.07, 0.11, -0.19, 9.65, 0.55, -0.01, 0.00, -0.84, 0.55, 0.03, 0.07, -0.83, 1.00, -0.01, -0.01, 0.04, 
34.42, 810.55, 23.83, 74.90, 0.00, 1843.49, 6048.20, 0.30, -0.38, 9.69, 0.01, 0.01, 0.27, -20.50, -7.56, -38.56, 0.82, -0.16, 0.07, 0.10, -0.19, 9.66, 0.55, -0.01, 0.00, -0.84, 0.55, 0.03, 0.07, -0.83, 1.00, -0.01, -0.01, 0.04, 
34.49, 810.56, 23.84, 74.90, 0.00, 1843.40, 6047.91, 0.30, -0.38, 9.69, 0.01, 0.01, 0.27, -20.50, -7.56, -38.56, -0.03, 0.34, -0.04, 0.10, -0.19, 9.66, 0.55, -0.01, 0.00, -0.84, 0.55, 0.03, 0.07, -0.83, 1.00, -0.01, -0.01, 0.04, 
34.56, 810.56, 23.84, 74.91, 0.00, 1843.43, 6047.98, 0.30, -0.38, 9.69, 0.01, 0.01, 0.27, -20.50, -7.56, -38.56, -0.03, 0.34, -0.04, 0.10, -0.19, 9.66, 0.55, -0.01, 0.00, -0.84, 0.55, 0.03, 0.07, -0.83, 1.00, -0.01, -0.01, 0.04, 
34.62, 810.56, 23.84, 74.91, 0.00, 1843.44, 6048.05, 0.30, -0.38, 9.69, 0.01, 0.01, 0.27, -20.50, -7.56, -38.56, -0.03, 0.34, -0.04, 0.10, -0.19, 9.66, 0.55, -0.01, 0.01, -0.84, 0.55, 0.03, 0.07, -0.83, 1.00, -0.01, -0.01, 0.04, 
34.69, 810.55, 23.84, 74.91, 0.00, 1843.52, 6048.30, 0.57, -0.11, 9.65, 0.01, 0.01, 0.27, -20.50, -7.56, -38.56, -0.03, 0.34, -0.04, 0.10, -0.19, 9.66, 0.55, -0.01, 0.01, -0.84, 0.55, 0.03, 0.07, -0.83, 1.00, -0.01, -0.01, 0.04, 
34.76, 810.55, 23.84, 74.91, 0.00, 1843.50, 6048.22, 0.57, -0.11, 9.65, 0.01, 0.01, 0.27, -20.50, -7.56, -38.56, -0.03, 0.34, -0.04, 0.11, -0.20, 9.66, 0.55, -0.01, 0.01, -0.84, 0.55, 0.03, 0.07, -0.83, 1.00, -0.01, -0.01, 0.04, 
34.83, 810.56, 23.84, 74.91, 0.00, 1843.44, 6048.03, 0.57, -0.11, 9.65, 0.01, 0.01, 0.27, -20.50, -7.56, -38.56, -0.03, 0.34, -0.04, 0.11, -0.20, 9.66, 0.55, -0.01, 0.01, -0.84, 0.55, 0.03, 0.07, -0.83, 1.00, -0.01, -0.01, 0.04, 
34.89, 810.55, 23.84, 74.91, 0.00, 1843.48, 6048.17, 0.57, -0.11, 9.65, -0.00, 0.01, -0.16, -20.50, -7.56, -38.56, -0.03, 0.34, -0.04, 0.11, -0.20, 9.66, 0.55, -0.01, 0.01, -0.84, 0.55, 0.03, 0.07, -0.83, 1.00, -0.01, -0.01, 0.04, 
34.97, 810.55, 23.84, 74.91, 0.00, 1843.57, 6048.44, 0.57, -0.11, 9.65, -0.00, 0.01, -0.16, -20.50, -7.56, -38.56, -0.03, 0.34, -0.04, 0.11, -0.20, 9.66, 0.55, -0.01, 0.01, -0.84, 0.55, 0.03, 0.07, -0.83, 1.00, -0.01, -0.01, 0.05, 
35.03, 810.55, 23.84, 74.91, 0.00, 1843.52, 6048.30, 0.57, -0.11, 9.65, -0.00, 0.01, -0.16, -20.50, -7.56, -38.56, -0.03, 0.34, -0.04, 0.11, -0.20, 9.66, 0.55, -0.01, 0.01, -0.84, 0.55, 0.03, 0.07, -0.83, 1.00, -0.01, -0.01, 0.05, 
35.11, 810.55, 23.84, 74.91, 0.00, 1843.57, 6048.46, 0.57, -0.11, 9.65, -0.00, 0.01, -0.16, -20.50, -7.56, -38.56, -0.03, 0.34, -0.04, 0.11, -0.20, 9.66, 0.55, -0.01, 0.01, -0.84, 0.55, 0.03, 0.07, -0.83, 1.00, -0.01, -0.01, 0.05, 
35.17, 810.54, 23.84, 74.91, 0.00, 1843.59, 6048.54, 0.57, -0.11, 9.65, -0.00, 0.01, -0.16, -20.50, -7.56, -38.56, -0.03, 0.34, -0.04, 0.11, -0.20, 9.66, 0.55, -0.01, 0.01, -0.84, 0.55, 0.03, 0.07, -0.83, 1.00, -0.01, -0.01, 0.05, 
35.25, 810.54, 23.84, 74.92, 0.00, 1843.58, 6048.49, 0.04, -0.38, 9.65, -0.00, 0.01, -0.16, -20.50, -7.56, -38.56, -0.03, 0.34, -0.04, 0.11, -0.20, 9.66, 0.55, -0.01, 0.01, -0.84, 0.55, 0.03, 0.07, -0.83, 1.00, -0.01, -0.01, 0.05, 
35.31, 810.55, 23.84, 74.92, 0.00, 1843.50, 6048.22, 0.04, -0.38, 9.65, -0.00, 0.01, -0.16, -20.50, -7.56, -38.56, -0.03, 0.34, -0.04, 0.12, -0.22, 9.66, 0.55, -0.01, 0.01, -0.84, 0.55, 0.03, 0.07, -0.83, 1.00, -0.01, -0.01, 0.05, 
35.38, 810.55, 23.84, 74.92, 0.00, 1843.52, 6048.30, 0.54, -0.23, 9.65, -0.00, 0.01, -0.16, -20.50, -7.56, -38.56, -0.03, 0.34, -0.04, 0.12, -0.22, 9.66, 0.55, -0.01, 0.01, -0.84, 0.55, 0.03, 0.07, -0.83, 1.00, -0.01, -0.01, 0.05, 
35.45, 810.55, 23.84, 74.92, 0.00, 1843.53, 6048.34, 0.54, -0.23, 9.65, -0.00, 0.01, -0.16, -20.50, -7.56, -38.56, -0.82, -0.34, -0.50, 0.12, -0.22, 9.66, 0.55, -0.01, 0.01, -0.84, 0.55, 0.03, 0.07, -0.83, 1.00, -0.01, -0.01, 0.05, 
35.52, 810.55, 23.84, 74.92, 0.00, 1843.56, 6048.41, 0.54, -0.23, 9.65, -0.00, 0.01, -0.16, -20.50, -7.56, -38.56, -0.82, -0.34, -0.50, 0.12, -0.22, 9.66, 0.55, -0.01, 0.01, -0.84, 0.55, 0.03, 0.07, -0.83, 1.00, -0.01, -0.01, 0.05, 
35.59, 810.54, 23.85, 74.92, 0.00, 1843.66, 6048.76, 0.54, -0.23, 9.65, -0.01, -0.03, -0.02, -20.50, -7.56, -38.56, -0.82, -0.34, -0.50, 0.12, -0.22, 9.66, 0.55, -0.01, 0.01, -0.84, 0.55, 0.03, 0.07, -0.83, 1.00, -0.01, -0.01, 0.05, 
35.66, 810.53, 23.85, 74.92, 0.00, 1843.71, 6048.91, 0.38, -0.19, 9.61, -0.01, -0.03, -0.02, -20.50, -7.56, -38.56, -0.82, -0.34, -0.50, 0.12, -0.22, 9.66, 0.55, -0.01, 0.01, -0.84, 0.55, 0.03, 0.07, -0.83, 1.00, -0.01, -0.01, 0.05, 
35.73, 810.51, 23.85, 74.92, 0.00, 1843.92, 6049.62, 0.38, -0.19, 9.61, -0.01, -0.03, -0.02, -20.50, -7.56, -38.56, -0.82, -0.34, -0.50, 0.14, -0.25, 9.65, 0.55, -0.01, 0.01, -0.84, 0.55, 0.03, 0.07, -0.83, 1.00, -0.01, -0.01, 0.05, 
35.81, 810.50, 23.85, 74.92, 0.00, 1844.01, 6049.90, 0.38, -0.19, 9.61, -0.01, -0.03, -0.02, -20.50, -7.56, -38.56, -0.82, -0.34, -0.50, 0.14, -0.25, 9.65, 0.55, -0.01, 0.01, -0.84, 0.55, 0.03, 0.07, -0.83, 1.00, -0.01, -0.01, 0.05, 
35.87, 810.50, 23.85, 74.92, 0.00, 1844.00, 6049.87, 0.11, -0.42, 9.58, -0.01, -0.03, -0.02, -20.50, -7.56, -38.56, -0.82, -0.34, -0.50, 0.14, -0.25, 9.65, 0.55, -0.01, 0.01, -0.84, 0.55, 0.03, 0.07, -0.83, 1.00, -0.01, -0.01, 0.05, 
35.94, 810.50, 23.85, 74.92, 0.00, 1844.04, 6050.00, 0.11, -0.42, 9.58, -0.01, -0.03, -0.02, -20.50, -7.56, -38.56, -0.82, -0.34, -0.50, 0.13, -0.24, 9.66, 0.55, -0.01, 0.01, -0.84, 0.55, 0.03, 0.07, -0.83, 1.00, -0.01, -0.01, 0.05, 
36.01, 810.51, 23.85, 74.92, 0.00, 1843.97, 6049.78, 0.11, -0.42, 9.58, -0.01, -0.03, -0.02, -20.50, -7.56, -38.56, -0.44, -0.04, -0.00, 0.13, -0.24, 9.66, 0.55, -0.01, 0.01, -0.84, 0.55, 0.03, 0.07, -0.83, 1.00, -0.01, -0.01, 0.05, 
36.08, 810.51, 23.85, 74.93, 0.00, 1843.96, 6049.75, 0.11, -0.42, 9.58, -0.01, -0.03, -0.02, -20.50, -7.56, -38.56, -0.44, -0.04, -0.00, 0.13, -0.24, 9.66, 0.55, -0.01, 0.01, -0.84, 0.55, 0.03, 0.07, -0.83, 1.00, -0.01, -0.01, 0.05, 
36.15, 810.51, 23.85, 74.93, 0.00, 1843.92, 6049.59, 0.11, -0.42, 9.58, -0.01, -0.03, -0.02, -20.50, -7.56, -38.56, -0.44, -0.04, -0.00, 0.13, -0.24, 9.66, 0.55, -0.01, 0.01, -0.84, 0.55, 0.03, 0.07, -0.83, 1.00, -0.01, -0.01, 0.04, 
36.22, 810.52, 23.85, 74.93, 0.00, 1843.82, 6049.29, 0.11, -0.42, 9.58, -0.01, -0.03, -0.02, -20.50, -7.56, -38.56, -0.44, -0.04, -0.00, 0.13, -0.24, 9.66, 0.55, -0.01, 0.01, -0.84, 0.54, 0.03, 0.07, -0.84, 1.00, -0.01, -0.01, 0.04, 
36.28, 810.53, 23.85, 74.93, 0.00, 1843.75, 6049.05, 0.11, -0.42, 9.58, -0.01, -0.03, -0.02, -20.50, -7.56, -38.56, -0.44, -0.04, -0.00, 0.13, -0.24, 9.66, 0.54, -0.01, 0.01, -0.84, 0.54, 0.03, 0.07, -0.84, 1.00, -0.01, -0.01, 0.04, 
36.36, 810.54, 23.85, 74.93, 0.00, 1843.62, 6048.64, 0.42, -0.08, 9.69, -0.01, -0.03, -0.02, -20.50, -7.56, -38.56, -0.44, -0.04, -0.00, 0.13, -0.24, 9.66, 0.54, -0.01, 0.01, -0.84, 0.54, 0.03, 0.07, -0.84, 1.00, -0.01, -0.01, 0.04, 
36.42, 810.55, 23.85, 74.93, 0.00, 1843.51, 6048.27, 0.42, -0.08, 9.69, 0.03, -0.01, -0.04, -20.50, -7.56, -38.56, -0.44, -0.04, -0.00, 0.13, -0.24, 9.66, 0.54, -0.01, 0.01, -0.84, 0.54, 0.03, 0.07, -0.84, 1.00, -0.01, -0.01, 0.04, 
36.50, 810.55, 23.85, 74.93, 0.00, 1843.57, 6048.46, 0.57, -0.04, 9.69, 0.03, -0.01, -0.04, -20.50, -7.56, -38.56, -0.44, -0.04, -0.00, 0.13, -0.24, 9.66, 0.54, -0.01, 0.01, -0.84, 0.54, 0.03, 0.07, -0.84, 1.00, -0.01, -0.01, 0.04, 
36.57, 810.54, 23.85, 74.93, 0.00, 1843.64, 6048.70, 0.57, -0.04, 9.69, 0.03, -0.01, -0.04, -20.50, -7.56, -38.56, -0.44, -0.04, -0.00, 0.13, -0.24, 9.66, 0.54, -0.01, 0.01, -0.84, 0.54, 0.03, 0.07, -0.84, 1.00, -0.01, -0.01, 0.04, 
36.64, 810.54, 23.85, 74.93, 0.00, 1843.60, 6048.55, -0.50, -0.42, 9.69, 0.03, -0.01, -0.04, -20.50, -7.56, -38.56, -0.44, -0.04, -0.00, 0.13, -0.24, 9.66, 0.54, -0.01, 0.01, -0.84, 0.54, 0.03, 0.07, -0.84, 1.00, -0.01, -0.01, 0.04, 
36.70, 810.54, 23.85, 74.94, 0.00, 1843.66, 6048.76, -0.50, -0.42, 9.69, 0.03, -0.01, -0.04, -20.50, -7.56, -38.56, -0.44, -0.04, -0.00, 0.13, -0.24, 9.66, 0.54, -0.01, 0.01, -0.84, 0.54, 0.03, 0.07, -0.84, 1.00, -0.01, -0.01, 0.04, 
36.78, 810.52, 23.85, 74.94, 0.00, 1843.78, 6049.16, -0.50, -0.42, 9.69, 0.03, -0.01, -0.04, -20.50, -7.56, -38.56, -0.44, -0.04, -0.00, 0.13, -0.24, 9.66, 0.54, -0.01, 0.01, -0.84, 0.54, 0.03, 0.07, -0.84, 1.00, -0.01, -0.01, 0.04, 
36.84, 810.54, 23.85, 74.94, 0.00, 1843.66, 6048.77, -0.50, -0.42, 9.69, 0.02, 0.01, 0.21, -20.50, -7.56, -38.56, -0.44, -0.04, -0.00, 0.13, -0.24, 9.66, 0.54, -0.01, 0.01, -0.84, 0.54, 0.03, 0.07, -0.84, 1.00, -0.01, -0.01, 0.04, 
36.92, 810.53, 23.85, 74.94, 0.00, 1843.73, 6049.00, -0.50, -0.42, 9.69, 0.02, 0.01, 0.21, -20.50, -7.56, -38.56, -0.44, -0.04, -0.00, 0.13, -0.24, 9.66, 0.54, -0.01, 0.01, -0.84, 0.54, 0.03, 0.07, -0.84, 1.00, -0.01, -0.01, 0.04, 
36.98, 810.53, 23.86, 74.94, 0.00, 1843.75, 6049.04, -0.50, -0.42, 9.69, 0.02, 0.01, 0.21, -20.50, -7.56, -38.56, -0.44, -0.04, -0.00, 0.13, -0.24, 9.66, 0.55, -0.01, 0.01, -0.84, 0.54, 0.03, 0.07, -0.84, 1.00, -0.01, -0.01, 0.04, 
37.05, 810.53, 23.86, 74.94, 0.00, 1843.69, 6048.86, -0.50, -0.42, 9.69, 0.02, 0.01, 0.21, -20.50, -7.56, -38.56, 0.22, 0.01, -0.00, 0.13, -0.24, 9.66, 0.55, -0.01, 0.01, -0.84, 0.54, 0.03, 0.07, -0.84, 1.00, -0.01, -0.01, 0.04, 
37.12, 810.54, 23.86, 74.94, 0.00, 1843.58, 6048.51, -0.50, -0.42, 9.69, 0.02, 0.01, 0.21, -20.50, -7.56, -38.56, 0.22, 0.01, -0.00, 0.12, -0.22, 9.66, 0.55, -0.01, 0.01, -0.84, 0.54, 0.03, 0.07, -0.84, 1.00, -0.01, -0.01, 0.04, 
37.19, 810.55, 23.86, 74.94, 0.00, 1843.55, 6048.40, -0.50, -0.42, 9.69, 0.02, 0.01, 0.21, -20.50, -7.56, -38.56, 0.22, 0.01, -0.00, 0.12, -0.22, 9.66, 0.55, -0.01, 0.01, -0.84, 0.55, 0.03, 0.07, -0.83, 1.00, -0.01, -0.01, 0.04, 
37.26, 810.53, 23.86, 74.94, 0.00, 1843.68, 6048.82, -0.50, -0.42, 9.69, 0.01, 0.00, 0.07, -20.50, -7.56, -38.56, 0.22, 0.01, -0.00, 0.12, -0.22, 9.66, 0.55, -0.01, 0.01, -0.84, 0.55, 0.03, 0.07, -0.83, 1.00, -0.01, -0.01, 0.04, 
37.33, 810.53, 23.86, 74.94, 0.00, 1843.74, 6049.03, -0.19, -0.34, 9.69, 0.01, 0.00, 0.07, -20.50, -7.56, -38.56, 0.22, 0.01, -0.00, 0.12, -0.22, 9.66, 0.55, -0.01, 0.01, -0.84, 0.55, 0.03, 0.07, -0.83, 1.00, -0.01, -0.01, 0.04, 
37.40, 810.54, 23.86, 74.95, 0.00, 1843.67, 6048.80, -0.19, -0.34, 9.69, 0.01, 0.00, 0.07, -20.50, -7.56, -38.56, 0.22, 0.01, -0.00, 0.12, -0.20, 9.66, 0.55, -0.01, 0.01, -0.84, 0.55, 0.03, 0.07, -0.83, 1.00, -0.01, -0.01, 0.04, 
37.47, 810.53, 23.86, 74.95, 0.00, 1843.72, 6048.97, -0.19, -0.34, 9.69, 0.01, 0.00, 0.07, -19.12, -7.31, -39.81, 0.22, 0.01, -0.00, 0.12, -0.20, 9.66, 0.55, -0.01, 0.01, -0.84, 0.55, 0.03, 0.07, -0.83, 1.00, -0.01, -0.01, 0.04, 
37.54, 810.52, 23.86, 74.95, 0.00, 1843.79, 6049.19, -0.19, -0.34, 9.69, 0.01, 0.00, 0.07, -19.12, -7.31, -39.81, 0.22, 0.01, -0.00, 0.12, -0.20, 9.66, 0.55, -0.01, 0.01, -0.84, 0.55, 0.03, 0.07, -0.83, 1.00, -0.01, -0.01, 0.04, 
37.61, 810.51, 23.86, 74.95, 0.00, 1843.94, 6049.67, -0.19, -0.34, 9.69, 0.01, 0.00, 0.07, -19.12, -7.31, -39.81, 0.22, 0.01, -0.00, 0.12, -0.20, 9.66, 0.55, -0.01, 0.01, -0.84, 0.55, 0.03, 0.07, -0.83, 1.00, -0.01, -0.01, 0.04, 
37.68, 810.50, 23.86, 74.95, 0.00, 1844.01, 6049.89, 0.46, -0.46, 9.61, 0.01, 0.00, 0.07, -19.12, -7.31, -39.81, 0.22, 0.01, -0.00, 0.12, -0.20, 9.66, 0.55, -0.01, 0.01, -0.84, 0.55, 0.03, 0.07, -0.83, 1.00, -0.01, -0.01, 0.04, 
37.75, 810.50, 23.86, 74.95, 0.00, 1844.06, 6050.05, 0.34, -0.19, 9.65, 0.01, 0.00, 0.07, -19.12, -7.31, -39.81, 0.22, 0.01, -0.00, 0.12, -0.20, 9.66, 0.55, -0.01, 0.01, -0.84, 0.55, 0.03, 0.07, -0.83, 1.00, -0.01, -0.01, 0.04, 
37.82, 810.50, 23.86, 74.95, 0.00, 1844.06, 6050.08, 0.34, -0.19, 9.65, 0.03, 0.01, -0.14, -19.12, -7.31, -39.81, 0.22, 0.01, -0.00, 0.12, -0.20, 9.66, 0.55, -0.01, 0.01, -0.84, 0.55, 0.03, 0.07, -0.83, 1.00, -0.01, -0.01, 0.04, 
37.89, 810.49, 23.86, 74.95, 0.00, 1844.12, 6050.26, 0.27, 0.15, 9.65, 0.03, 0.01, -0.14, -19.12, -7.31, -39.81, 0.22, 0.01, -0.00, 0.12, -0.20, 9.66, 0.55, -0.01, 0.01, -0.84, 0.55, 0.03, 0.07, -0.83, 1.00, -0.01, -0.01, 0.04, 
37.95, 810.50, 23.86, 74.96, 0.00, 1844.02, 6049.93, 0.27, 0.15, 9.65, 0.03, 0.01, -0.14, -19.12, -7.31, -39.81, 0.12, 0.12, -0.00, 0.12, -0.20, 9.66, 0.55, -0.01, 0.01, -0.84, 0.55, 0.03, 0.07, -0.83, 1.00, -0.01, -0.01, 0.04, 
38.03, 810.51, 23.86, 74.96, 0.00, 1843.89, 6049.52, 0.27, 0.15, 9.65, 0.03, 0.01, -0.14, -19.12, -7.31, -39.81, 0.12, 0.12, -0.00, 0.12, -0.21, 9.66, 0.55, -0.01, 0.01, -0.84, 0.55, 0.03, 0.07, -0.83, 1.00, -0.01, -0.01, 0.04, 
38.09, 810.52, 23.87, 74.96, 0.00, 1843.88, 6049.47, 0.27, 0.15, 9.65, -0.02, -0.00, 0.03, -19.12, -7.31, -39.81, 0.12, 0.12, -0.00, 0.12, -0.21, 9.66, 0.55, -0.01, 0.01, -0.84, 0.55, 0.03, 0.07, -0.83, 1.00, -0.01, -0.01, 0.04, 
38.17, 810.52, 23.87, 74.96, 0.00, 1843.81, 6049.24, 0.27, 0.15, 9.65, -0.02, -0.00, 0.03, -19.12, -7.31, -39.81, 0.12, 0.12, -0.00, 0.12, -0.21, 9.66, 0.55, -0.01, 0.01, -0.84, 0.55, 0.03, 0.07, -0.83, 1.00, -0.01, -0.01, 0.04, 
38.23, 810.52, 23.87, 74.96, 0.00, 1843.79, 6049.18, 0.27, 0.15, 9.65, -0.02, -0.00, 0.03, -19.12, -7.31, -39.81, 0.12, 0.12, -0.00, 0.12, -0.21, 9.66, 0.55, -0.01, 0.01, -0.84, 0.55, 0.03, 0.07, -0.83, 1.00, -0.01, -0.01, 0.04, 
38.31, 810.51, 23.87, 74.96, 0.00, 1843.94, 6049.66, 0.27, 0.15, 9.65, -0.02, -0.00, 0.03, -19.12, -7.31, -39.81, -0.18, 0.51, -0.00, 0.12, -0.21, 9.66, 0.55, -0.01, 0.01, -0.84, 0.55, 0.03, 0.07, -0.83, 1.00, -0.01, -0.01, 0.04, 
38.38, 810.51, 23.87, 74.96, 0.00, 1843.94, 6049.68, 0.27, 0.15, 9.65, -0.02, -0.00, 0.03, -19.12, -7.31, -39.81, -0.18, 0.51, -0.00, 0.12, -0.21, 9.66, 0.55, -0.01, 0.01, -0.84, 0.55, 0.03, 0.07, -0.83, 1.00, -0.01, -0.01, 0.04, 
38.45, 810.52, 23.87, 74.96, 0.00, 1843.86, 6049.40, 0.27, 0.15, 9.65, -0.02, -0.00, 0.03, -20.62, -6.81, -38.75, -0.18, 0.51, -0.00, 0.12, -0.21, 9.66, 0.55, -0.01, 0.01, -0.84, 0.55, 0.03, 0.07, -0.83, 1.00, -0.01, -0.01, 0.04, 
38.51, 810.51, 23.87, 74.96, 0.00, 1843.96, 6049.74, 0.27, 0.15, 9.65, -0.02, -0.00, 0.03, -20.62, -6.81, -38.75, -0.18, 0.51, -0.00, 0.12, -0.21, 9.66, 0.55, -0.01, 0.01, -0.84, 0.55, 0.03, 0.07, -0.83, 1.00, -0.01, -0.01, 0.04, 
38.58, 810.50, 23.87, 74.96, 0.00, 1843.99, 6049.84, 0.04, 0.19, 9.65, -0.02, -0.00, 0.03, -20.62, -6.81, -38.75, -0.18, 0.51, -0.00, 0.12, -0.21, 9.66, 0.55, -0.01, 0.01, -0.84, 0.55, 0.03, 0.07, -0.83, 1.00, -0.01, -0.01, 0.04, 
38.65, 810.50, 23.87, 74.96, 0.00, 1843.99, 6049.85, 0.04, 0.19, 9.65, -0.02, -0.00, 0.03, -20.62, -6.81, -38.75, -0.18, 0.51, -0.00, 0.12, -0.21, 9.66, 0.55, -0.01, 0.01, -0.84, 0.55, 0.03, 0.07, -0.83, 1.00, -0.01, -0.01, 0.04, 
38.72, 810.52, 23.87, 74.96, 0.00, 1843.83, 6049.30, -0.27, 0.00, 9.61, -0.02, -0.00, 0.03, -20.62, -6.81, -38.75, -0.18, 0.51, -0.00, 0.12, -0.21, 9.66, 0.55, -0.01, 0.01, -0.84, 0.55, 0.03, 0.07, -0.83, 1.00, -0.01, -0.01, 0.04, 
38.79, 810.53, 23.87, 74.97, 0.00, 1843.74, 6049.03, -0.27, 0.00, 9.61, -0.02, -0.00, 0.03, -20.62, -6.81, -38.75, -0.18, 0.51, -0.00, 0.12, -0.21, 9.66, 0.55, -0.01, 0.01, -0.84, 0.55, 0.03, 0.07, -0.83, 1.00, -0.01, -0.01, 0.04, 
38.86, 810.53, 23.87, 74.96, 0.00, 1843.73, 6048.99, -0.27, 0.00, 9.61, -0.02, -0.00, 0.03, -20.62, -6.81, -38.75, -0.18, 0.51, -0.00, 0.12, -0.21, 9.66, 0.55, -0.01, 0.00, -0.84, 0.55, 0.03, 0.07, -0.83, 1.00, -0.01, -0.01, 0.04, 
38.94, 810.53, 23.87, 74.97, 0.00, 1843.71, 6048.92, 0.15, 0.34, 9.65, -0.02, -0.00, 0.03, -20.62, -6.81, -38.75, -0.18, 0.51, -0.00, 0.12, -0.21, 9.66, 0.55, -0.01, 0.00, -0.84, 0.55, 0.03, 0.07, -0.83, 1.00, -0.01, -0.01, 0.04, 
39.01, 810.53, 23.87, 74.96, 0.00, 1843.74, 6049.00, -0.30, 0.15, 9.65, -0.02, -0.00, 0.03, -20.62, -6.81, -38.75, -0.18, 0.51, -0.00, 0.12, -0.21, 9.66, 0.55, -0.01, 0.00, -0.84, 0.55, 0.03, 0.07, -0.83, 1.00, -0.01, -0.01, 0.04, 
39.07, 810.52, 23.87, 74.97, 0.00, 1843.79, 6049.17, -0.30, 0.15, 9.65, -0.02, -0.01, -0.18, -20.62, -6.81, -38.75, -0.18, 0.51, -0.00, 0.12, -0.21, 9.66, 0.55, -0.01, 0.00, -0.84, 0.55, 0.03, 0.07, -0.83, 1.00, -0.01, -0.01, 0.04, 
39.14, 810.51, 23.87, 74.97, 0.00, 1843.97, 6049.78, 0.08, -0.38, 9.65, -0.02, -0.01, -0.18, -20.62, -6.81, -38.75, -0.18, 0.51, -0.00, 0.12, -0.21, 9.66, 0.55, -0.01, 0.00, -0.84, 0.55, 0.03, 0.07, -0.83, 1.00, -0.01, -0.01, 0.04, 
39.21, 810.51, 23.87, 74.97, 0.00, 1843.95, 6049.72, 0.08, -0.38, 9.65, -0.00, -0.00, -0.21, -20.62, -6.81, -38.75, -0.18, 0.51, -0.00, 0.12, -0.21, 9.66, 0.55, -0.01, 0.00, -0.84, 0.55, 0.03, 0.07, -0.83, 1.00, -0.01, -0.01, 0.04, 
39.28, 810.53, 23.87, 74.97, 0.00, 1843.77, 6049.13, 0.08, -0.38, 9.65, -0.00, -0.00, -0.21, -20.62, -6.81, -38.75, -0.00, 0.15, -0.08, 0.12, -0.21, 9.66, 0.55, -0.01, 0.00, -0.84, 0.55, 0.03, 0.07, -0.83, 1.00, -0.01, -0.01, 0.04, 
39.35, 810.54, 23.87, 74.97, 0.00, 1843.66, 6048.74, 0.08, -0.38, 9.65, 0.03, 0.02, -0.10, -20.62, -6.81, -38.75, -0.00, 0.15, -0.08, 0.12, -0.21, 9.66, 0.55, -0.01, 0.00, -0.84, 0.55, 0.03, 0.07, -0.83, 1.00, -0.01, -0.01, 0.04, 
39.43, 810.55, 23.87, 74.97, 0.00, 1843.56, 6048.42, 0.08, -0.38, 9.65, 0.03, 0.02, -0.10, -20.62, -6.81, -38.75, -0.00, 0.15, -0.08, 0.12, -0.21, 9.66, 0.55, -0.01, 0.00, -0.84, 0.55, 0.03, 0.07, -0.83, 1.00, -0.01, -0.01, 0.04, 
39.49, 810.55, 23.87, 74.97, 0.00, 1843.54, 6048.36, 0.08, -0.38, 9.65, 0.03, 0.02, -0.10, -20.62, -6.81, -38.75, -0.00, 0.15, -0.08, 0.12, -0.21, 9.66, 0.55, -0.01, 0.00, -0.84, 0.55, 0.03, 0.07, -0.83, 1.00, -0.01, -0.01, 0.04, 
39.57, 810.56, 23.87, 74.97, 0.00, 1843.44, 6048.04, 0.08, -0.38, 9.65, 0.03, 0.02, -0.10, -20.62, -6.81, -38.75, -0.00, 0.15, -0.08, 0.12, -0.21, 9.66, 0.55, -0.01, 0.00, -0.84, 0.55, 0.03, 0.07, -0.83, 1.00, -0.01, -0.01, 0.04, 
39.63, 810.56, 23.87, 74.97, 0.00, 1843.45, 6048.06, 0.08, -0.38, 9.65, 0.03, 0.02, -0.10, -20.62, -6.81, -38.75, -0.00, 0.15, -0.08, 0.10, -0.19, 9.66, 0.55, -0.01, 0.00, -0.84, 0.55, 0.03, 0.07, -0.83, 1.00, -0.01, -0.01, 0.04, 
39.70, 810.57, 23.87, 74.97, 0.00, 1843.32, 6047.64, 0.08, -0.38, 9.65, 0.03, 0.02, -0.10, -20.62, -6.81, -38.75, -0.00, 0.15, -0.08, 0.10, -0.19, 9.66, 0.55, -0.01, 0.00, -0.84, 0.55, 0.03, 0.07, -0.83, 1.00, -0.01, -0.01, 0.04, 
39.77, 810.57, 23.88, 74.98, 0.00, 1843.30, 6047.58, 0.08, -0.38, 9.65, 0.03, 0.02, -0.10, -20.62, -6.81, -38.75, -0.00, 0.15, -0.08, 0.10, -0.19, 9.66, 0.55, -0.01, 0.00, -0.84, 0.55, 0.03, 0.07, -0.83, 1.00, -0.01, -0.01, 0.04, 
39.85, 810.57, 23.88, 74.98, 0.00, 1843.34, 6047.69, 0.08, -0.38, 9.65, 0.02, -0.01, 0.00, -20.62, -6.81, -38.75, -0.00, 0.15, -0.08, 0.10, -0.19, 9.66, 0.55, -0.01, 0.00, -0.84, 0.55, 0.03, 0.07, -0.83, 1.00, -0.01, -0.01, 0.04, 
39.92, 810.58, 23.88, 74.98, 0.00, 1843.27, 6047.48, 0.08, -0.38, 9.65, 0.02, -0.01, 0.00, -20.62, -6.81, -38.75, -0.00, 0.15, -0.08, 0.10, -0.16, 9.66, 0.55, -0.01, 0.00, -0.84, 0.55, 0.03, 0.07, -0.83, 1.00, -0.01, -0.01, 0.04, 
39.99, 810.58, 23.88, 74.98, 0.00, 1843.20, 6047.26, 0.08, -0.38, 9.65, 0.02, -0.01, 0.00, -20.62, -6.81, -38.75, -0.00, 0.15, -0.08, 0.10, -0.16, 9.66, 0.55, -0.01, 0.00, -0.84, 0.55, 0.03, 0.07, -0.83, 1.00, -0.01, -0.01, 0.04, 
40.06, 810.59, 23.88, 74.98, 0.00, 1843.15, 6047.08, 0.08, -0.38, 9.65, 0.02, -0.01, 0.00, -20.62, -6.81, -38.75, -0.00, 0.15, -0.08, 0.11, -0.18, 9.66, 0.55, -0.01, 0.00, -0.84, 0.55, 0.03, 0.07, -0.83, 1.00, -0.01, -0.01, 0.04, 
40.12, 810.59, 23.88, 74.98, 0.00, 1843.15, 6047.07, 0.08, -0.38, 9.65, 0.02, -0.01, 0.00, -20.62, -6.81, -38.75, -0.00, 0.15, -0.08, 0.11, -0.18, 9.66, 0.55, -0.01, 0.00, -0.84, 0.55, 0.03, 0.07, -0.83, 1.00, -0.01, -0.01, 0.04, 
40.19, 810.59, 23.88, 74.98, 0.00, 1843.15, 6047.07, 0.42, -0.34, 9.69, 0.02, -0.01, 0.00, -20.62, -6.81, -38.75, -0.00, 0.15, -0.08, 0.11, -0.18, 9.66, 0.55, -0.01, 0.00, -0.84, 0.55, 0.03, 0.07, -0.83, 1.00, -0.01, -0.01, 0.04, 
40.26, 810.59, 23.88, 74.98, 0.00, 1843.16, 6047.11, 0.42, -0.34, 9.69, 0.02, -0.01, 0.00, -20.62, -6.81, -38.75, -0.00, 0.15, -0.08, 0.11, -0.18, 9.66, 0.55, -0.01, 0.00, -0.84, 0.55, 0.03, 0.07, -0.83, 1.00, -0.01, -0.01, 0.04, 
40.34, 810.59, 23.88, 74.99, 0.00, 1843.16, 6047.10, 0.42, -0.34, 9.69, 0.02, -0.01, 0.00, -20.62, -6.81, -38.75, -0.00, 0.15, -0.08, 0.11, -0.18, 9.66, 0.55, -0.01, 0.00, -0.84, 0.54, 0.03, 0.07, -0.84, 1.00, -0.01, -0.01, 0.04, 
40.41, 810.59, 23.88, 74.99, 0.00, 1843.12, 6046.98, -0.08, -0.04, 9.65, 0.02, -0.01, 0.00, -20.62, -6.81, -38.75, -0.00, 0.15, -0.08, 0.11, -0.18, 9.66, 0.55, -0.01, 0.00, -0.84, 0.54, 0.03, 0.07, -0.84, 1.00, -0.01, -0.01, 0.04, 
40.48, 810.59, 23.88, 74.99, 0.00, 1843.12, 6046.97, -0.08, -0.04, 9.65, -0.02, 0.01, 0.02, -20.62, -6.81, -38.75, -0.00, 0.15, -0.08, 0.11, -0.18, 9.66, 0.55, -0.01, 0.00, -0.84, 0.54, 0.03, 0.07, -0.84, 1.00, -0.01, -0.01, 0.04, 
40.55, 810.59, 23.88, 74.99, 0.00, 1843.14, 6047.04, -0.08, -0.04, 9.65, 0.00, -0.01, 0.01, -20.62, -6.81, -38.75, -0.00, 0.15, -0.08, 0.11, -0.18, 9.66, 0.55, -0.01, 0.00, -0.84, 0.54, 0.03, 0.07, -0.84, 1.00, -0.01, -0.01, 0.04, 
40.62, 810.59, 23.88, 74.99, 0.00, 1843.09, 6046.88, -0.08, -0.04, 9.65, 0.00, -0.01, 0.01, -20.62, -6.81, -38.75, 0.06, -0.04, -0.00, 0.11, -0.18, 9.66, 0.55, -0.01, 0.00, -0.84, 0.54, 0.03, 0.07, -0.84, 1.00, -0.01, -0.01, 0.04, 
40.69, 810.60, 23.88, 74.99, 0.00, 1843.05, 6046.74, -0.08, -0.04, 9.65, 0.00, -0.01, 0.01, -20.62, -6.81, -38.75, 0.06, -0.04, -0.00, 0.11, -0.18, 9.66, 0.55, -0.01, 0.00, -0.84, 0.54, 0.03, 0.07, -0.84, 1.00, -0.01, -0.01, 0.05, 
40.76, 810.60, 23.89, 74.99, 0.00, 1843.01, 6046.61, 0.46, 0.11, 9.65, 0.00, -0.01, 0.01, -20.62, -6.81, -38.75, 0.06, -0.04, -0.00, 0.11, -0.18, 9.66, 0.55, -0.01, 0.00, -0.84, 0.54, 0.03, 0.07, -0.84, 1.00, -0.01, -0.01, 0.05, 
40.87, 810.60, 23.89, 74.99, 0.00, 1843.04, 6046.71, 0.46, 0.11, 9.65, 0.00, -0.01, 0.01, -20.62, -6.81, -38.75, 0.06, -0.04, -0.00, 0.11, -0.18, 9.66, 0.55, -0.01, 0.00, -0.84, 0.54, 0.03, 0.07, -0.84, 1.00, -0.01, -0.01, 0.05, 
40.94, 810.60, 23.88, 74.99, 0.00, 1843.06, 6046.77, 0.46, 0.11, 9.65, 0.00, -0.01, 0.01, -20.62, -6.81, -38.75, 0.06, -0.04, -0.00, 0.11, -0.18, 9.66, 0.55, -0.01, 0.00, -0.84, 0.55, 0.03, 0.07, -0.83, 1.00, -0.01, -0.01, 0.05, 
41.01, 810.60, 23.88, 74.99, 0.00, 1843.02, 6046.66, 0.46, 0.11, 9.65, 0.00, -0.01, 0.01, -20.62, -6.81, -38.75, 0.06, -0.04, -0.00, 0.11, -0.18, 9.66, 0.55, -0.01, 0.00, -0.84, 0.55, 0.03, 0.07, -0.83, 1.00, -0.01, -0.01, 0.05, 
41.08, 810.60, 23.88, 74.99, 0.00, 1843.05, 6046.76, 0.46, 0.11, 9.65, 0.00, -0.01, 0.01, -20.62, -6.81, -38.75, -0.11, -0.04, -0.04, 0.11, -0.18, 9.66, 0.55, -0.01, 0.00, -0.84, 0.55, 0.03, 0.07, -0.83, 1.00, -0.01, -0.01, 0.05, 
41.15, 810.60, 23.88, 74.99, 0.00, 1842.99, 6046.56, 0.46, 0.11, 9.65, 0.00, -0.01, 0.01, -20.62, -6.81, -38.75, -0.11, -0.04, -0.04, 0.11, -0.18, 9.66, 0.55, -0.01, 0.00, -0.84, 0.55, 0.03, 0.07, -0.83, 1.00, -0.01, -0.01, 0.05, 
41.21, 810.60, 23.89, 74.99, 0.00, 1843.00, 6046.58, 0.46, 0.11, 9.65, -0.00, -0.01, 0.05, -20.62, -6.81, -38.75, -0.11, -0.04, -0.04, 0.11, -0.18, 9.66, 0.55, -0.01, 0.00, -0.84, 0.55, 0.03, 0.07, -0.83, 1.00, -0.01, -0.01, 0.05, 
41.28, 810.61, 23.89, 75.00, 0.00, 1842.90, 6046.27, 0.27, 0.15, 9.65, -0.00, -0.01, 0.05, -20.62, -6.81, -38.75, -0.11, -0.04, -0.04, 0.11, -0.18, 9.66, 0.55, -0.01, 0.00, -0.84, 0.55, 0.03, 0.07, -0.83, 1.00, -0.01, -0.01, 0.05, 
41.35, 810.62, 23.89, 75.00, 0.00, 1842.87, 6046.17, 0.27, 0.15, 9.65, -0.00, -0.01, 0.05, -20.62, -6.81, -38.75, 0.31, -0.27, -0.00, 0.11, -0.18, 9.66, 0.55, -0.01, 0.00, -0.84, 0.55, 0.03, 0.07, -0.83, 1.00, -0.01, -0.01, 0.05, 
41.42, 810.62, 23.89, 75.00, 0.00, 1842.80, 6045.93, 0.27, 0.15, 9.65, -0.00, -0.01, 0.05, -20.62, -6.81, -38.75, 0.27, -0.37, -0.00, 0.11, -0.18, 9.66, 0.55, -0.01, 0.00, -0.84, 0.55, 0.03, 0.07, -0.83, 1.00, -0.01, -0.01, 0.05, 
41.49, 810.62, 23.89, 75.00, 0.00, 1842.83, 6046.03, 0.27, 0.15, 9.65, -0.00, -0.01, 0.05, -20.62, -6.81, -38.75, 0.27, -0.37, -0.00, 0.11, -0.18, 9.66, 0.55, -0.01, 0.00, -0.84, 0.55, 0.03, 0.07, -0.83, 1.00, -0.01, -0.01, 0.05, 
41.55, 810.62, 23.89, 75.01, 0.00, 1842.83, 6046.02, 0.27, 0.15, 9.65, -0.00, -0.01, 0.05, -20.62, -6.81, -38.75, 0.27, -0.37, -0.00, 0.11, -0.18, 9.66, 0.55, -0.01, 0.00, -0.84, 0.55, 0.03, 0.07, -0.83, 1.00, -0.01, -0.01, 0.05, 
41.63, 810.62, 23.89, 75.01, 0.00, 1842.78, 6045.88, 0.27, 0.15, 9.65, 0.01, 0.01, -0.00, -20.62, -6.81, -38.75, 0.27, -0.37, -0.00, 0.11, -0.18, 9.66, 0.55, -0.01, 0.00, -0.84, 0.55, 0.03, 0.07, -0.83, 1.00, -0.01, -0.01, 0.05, 
41.69, 810.63, 23.90, 75.01, 0.00, 1842.73, 6045.69, 0.27, 0.15, 9.65, 0.01, 0.01, -0.00, -20.62, -6.81, -38.75, 0.27, -0.37, -0.00, 0.11, -0.18, 9.66, 0.55, -0.01, 0.00, -0.84, 0.55, 0.03, 0.07, -0.83, 1.00, -0.01, -0.01, 0.05, 
41.77, 810.62, 23.90, 75.02, 0.00, 1842.78, 6045.88, 0.27, 0.15, 9.65, -0.01, -0.01, 0.09, -20.62, -6.81, -38.75, 0.27, -0.37, -0.00, 0.11, -0.18, 9.66, 0.55, -0.01, 0.00, -0.84, 0.55, 0.03, 0.07, -0.83, 1.00, -0.01, -0.01, 0.05, 
41.83, 810.61, 23.90, 75.02, 0.00, 1842.89, 6046.23, 0.27, 0.15, 9.65, -0.01, -0.01, 0.09, -20.62, -6.81, -38.75, 0.27, -0.37, -0.00, 0.11, -0.18, 9.66, 0.55, -0.01, 0.01, -0.84, 0.55, 0.03, 0.07, -0.83, 1.00, -0.01, -0.01, 0.05, 
41.90, 810.61, 23.90, 75.01, 0.00, 1842.93, 6046.35, 0.46, -0.04, 9.69, -0.01, -0.01, 0.09, -20.62, -6.81, -38.75, 0.27, -0.37, -0.00, 0.11, -0.18, 9.66, 0.55, -0.01, 0.01, -0.84, 0.55, 0.03, 0.07, -0.83, 1.00, -0.01, -0.01, 0.05, 
41.97, 810.60, 23.90, 75.02, 0.00, 1843.00, 6046.60, 0.46, -0.04, 9.69, -0.01, -0.01, 0.09, -20.62, -6.81, -38.75, 0.27, -0.37, -0.00, 0.11, -0.18, 9.66, 0.55, -0.01, 0.01, -0.84, 0.55, 0.03, 0.07, -0.83, 1.00, -0.01, -0.01, 0.05, 
42.04, 810.60, 23.90, 75.02, 0.00, 1843.05, 6046.75, 0.46, -0.04, 9.69, -0.01, -0.01, 0.09, -19.12, -7.31, -38.81, 0.27, -0.37, -0.00, 0.11, -0.18, 9.66, 0.55, -0.01, 0.01, -0.84, 0.55, 0.03, 0.07, -0.83, 1.00, -0.01, -0.01, 0.05, 
42.11, 810.59, 23.90, 75.02, 0.00, 1843.10, 6046.93, 0.46, -0.04, 9.69, -0.01, -0.01, 0.09, -19.44, -7.69, -38.00, 0.27, -0.37, -0.00, 0.11, -0.18, 9.66, 0.55, -0.01, 0.01, -0.84, 0.55, 0.03, 0.07, -0.83, 1.00, -0.01, -0.01, 0.05, 
42.18, 810.58, 23.90, 75.02, 0.00, 1843.20, 6047.26, 0.46, -0.04, 9.69, -0.01, -0.01, 0.09, -19.44, -7.69, -38.00, 0.27, -0.37, -0.00, 0.11, -0.18, 9.66, 0.55, -0.01, 0.01, -0.84, 0.55, 0.03, 0.07, -0.83, 1.00, -0.01, -0.01, 0.04, 
42.25, 810.58, 23.90, 75.02, 0.00, 1843.25, 6047.40, 0.46, -0.04, 9.69, -0.01, -0.01, 0.09, -19.44, -7.69, -38.00, 0.27, -0.37, -0.00, 0.11, -0.18, 9.66, 0.54, -0.01, 0.00, -0.84, 0.55, 0.03, 0.07, -0.83, 1.00, -0.01, -0.01, 0.04, 
42.32, 810.58, 23.90, 75.02, 0.00, 1843.18, 6047.19, 0.46, -0.04, 9.69, -0.01, -0.01, 0.09, -19.44, -7.69, -38.00, -0.46, 0.11, -0.04, 0.11, -0.18, 9.66, 0.54, -0.01, 0.00, -0.84, 0.55, 0.03, 0.07, -0.83, 1.00, -0.01, -0.01, 0.04, 
42.39, 810.59, 23.90, 75.03, 0.00, 1843.09, 6046.89, 0.46, -0.04, 9.69, -0.01, -0.01, 0.09, -19.44, -7.69, -38.00, -0.46, 0.11, -0.04, 0.12, -0.20, 9.66, 0.54, -0.01, 0.00, -0.84, 0.55, 0.03, 0.07, -0.83, 1.00, -0.01, -0.01, 0.04, 
42.46, 810.60, 23.90, 75.03, 0.00, 1843.05, 6046.74, 0.46, -0.04, 9.69, -0.01, -0.01, 0.09, -19.06, -8.06, -38.81, -0.46, 0.11, -0.04, 0.12, -0.20, 9.66, 0.54, -0.01, 0.00, -0.84, 0.55, 0.03, 0.07, -0.83, 1.00, -0.01, -0.01, 0.04, 
42.53, 810.60, 23.90, 75.03, 0.00, 1843.04, 6046.71, 0.27, 0.00, 9.69, -0.01, -0.01, 0.09, -19.06, -8.06, -38.81, -0.46, 0.11, -0.04, 0.12, -0.20, 9.66, 0.54, -0.01, 0.00, -0.84, 0.55, 0.03, 0.07, -0.83, 1.00, -0.01, -0.01, 0.04, 
42.60, 810.60, 23.90, 75.03, 0.00, 1843.04, 6046.72, 0.27, 0.00, 9.69, 0.02, -0.00, -0.11, -19.06, -8.06, -38.81, -0.46, 0.11, -0.04, 0.12, -0.20, 9.66, 0.54, -0.01, 0.00, -0.84, 0.55, 0.03, 0.07, -0.83, 1.00, -0.01, -0.01, 0.04, 
42.67, 810.61, 23.91, 75.03, 0.00, 1842.91, 6046.29, 0.27, 0.00, 9.69, 0.02, -0.00, -0.11, -19.06, -8.06, -38.81, -0.46, 0.11, -0.04, 0.12, -0.20, 9.66, 0.54, -0.01, 0.00, -0.84, 0.54, 0.03, 0.07, -0.84, 1.00, -0.01, -0.01, 0.04, 
42.74, 810.62, 23.91, 75.03, 0.00, 1842.78, 6045.87, 0.27, 0.00, 9.69, 0.02, -0.00, -0.11, -19.87, -7.25, -38.38, -0.46, 0.11, -0.04, 0.12, -0.20, 9.66, 0.54, -0.01, 0.00, -0.84, 0.54, 0.03, 0.07, -0.84, 1.00, -0.01, -0.01, 0.04, 
42.81, 810.62, 23.91, 75.03, 0.00, 1842.80, 6045.93, 0.27, 0.00, 9.69, 0.02, -0.00, -0.11, -19.87, -7.25, -38.38, -0.46, 0.11, -0.04, 0.12, -0.20, 9.66, 0.54, -0.01, 0.00, -0.84, 0.54, 0.03, 0.07, -0.84, 1.00, -0.01, -0.01, 0.04, 
42.88, 810.62, 23.91, 75.03, 0.00, 1842.80, 6045.94, 0.27, 0.00, 9.69, 0.02, -0.00, -0.11, -21.00, -6.75, -40.38, -0.46, 0.11, -0.04, 0.12, -0.20, 9.66, 0.54, -0.01, 0.00, -0.84, 0.54, 0.03, 0.07, -0.84, 1.00, -0.01, -0.01, 0.04, 
42.95, 810.63, 23.91, 75.03, 0.00, 1842.73, 6045.70, 0.34, 0.00, 9.69, 0.02, -0.00, -0.11, -21.00, -6.75, -40.38, -0.46, 0.11, -0.04, 0.12, -0.20, 9.66, 0.54, -0.01, 0.00, -0.84, 0.54, 0.03, 0.07, -0.84, 1.00, -0.01, -0.01, 0.04, 
43.02, 810.62, 23.91, 75.03, 0.00, 1842.79, 6045.89, 0.34, 0.00, 9.69, 0.02, -0.00, -0.11, -18.69, -7.81, -36.44, -0.46, 0.11, -0.04, 0.12, -0.20, 9.66, 0.54, -0.01, 0.00, -0.84, 0.54, 0.03, 0.07, -0.84, 1.00, -0.01, -0.01, 0.04, 
43.09, 810.62, 23.91, 75.03, 0.00, 1842.81, 6045.98, 0.34, 0.00, 9.69, 0.02, -0.00, -0.11, -18.69, -7.81, -36.44, -0.46, 0.11, -0.04, 0.12, -0.20, 9.66, 0.54, -0.01, 0.00, -0.84, 0.54, 0.03, 0.07, -0.84, 1.00, -0.01, -0.01, 0.04, 
43.16, 810.62, 23.91, 75.04, 0.00, 1842.79, 6045.89, 0.00, -0.34, 9.61, 0.02, -0.00, -0.11, -18.69, -7.81, -36.44, -0.46, 0.11, -0.04, 0.12, -0.20, 9.66, 0.54, -0.01, 0.00, -0.84, 0.54, 0.03, 0.07, -0.84, 1.00, -0.01, -0.01, 0.04, 
43.23, 810.62, 23.91, 75.04, 0.00, 1842.83, 6046.02, 0.00, -0.34, 9.61, 0.02, -0.00, -0.11, -18.69, -7.81, -36.44, -0.46, 0.11, -0.04, 0.12, -0.20, 9.66, 0.54, -0.01, 0.00, -0.84, 0.54, 0.03, 0.07, -0.84, 1.00, -0.01, -0.01, 0.04, 
43.30, 810.62, 23.91, 75.04, 0.00, 1842.83, 6046.03, 0.00, -0.34, 9.61, 0.02, -0.00, -0.11, -18.69, -7.81, -36.44, -0.12, 0.09, -0.04, 0.12, -0.20, 9.66, 0.54, -0.01, 0.00, -0.84, 0.54, 0.03, 0.07, -0.84, 1.00, -0.01, -0.01, 0.04, 
43.36, 810.62, 23.91, 75.04, 0.00, 1842.84, 6046.08, 0.00, -0.34, 9.61, 0.02, -0.00, -0.11, -18.69, -7.81, -36.44, -0.12, 0.09, -0.04, 0.12, -0.20, 9.66, 0.54, -0.01, 0.01, -0.84, 0.54, 0.03, 0.07, -0.84, 1.00, -0.01, -0.01, 0.04, 
43.44, 810.62, 23.91, 75.04, 0.00, 1842.81, 6045.97, 0.00, -0.34, 9.61, 0.02, -0.00, -0.11, -18.69, -7.81, -36.44, -0.12, 0.09, -0.04, 0.12, -0.20, 9.66, 0.54, -0.01, 0.01, -0.84, 0.54, 0.03, 0.07, -0.84, 1.00, -0.01, -0.01, 0.04, 
43.51, 810.63, 23.91, 75.04, 0.00, 1842.78, 6045.87, -0.19, -0.15, 9.65, 0.02, -0.00, -0.11, -18.69, -7.81, -36.44, -0.12, 0.09, -0.04, 0.12, -0.20, 9.66, 0.54, -0.01, 0.01, -0.84, 0.54, 0.03, 0.07, -0.84, 1.00, -0.01, -0.01, 0.04, 
43.58, 810.63, 23.91, 75.04, 0.00, 1842.77, 6045.85, -0.19, 0.00, 9.61, 0.02, -0.00, -0.11, -18.69, -7.81, -36.44, -0.12, 0.09, -0.04, 0.12, -0.20, 9.66, 0.54, -0.01, 0.01, -0.84, 0.54, 0.03, 0.07, -0.84, 1.00, -0.01, -0.01, 0.04, 
43.65, 810.62, 23.91, 75.04, 0.00, 1842.79, 6045.89, -0.19, 0.00, 9.61, 0.02, -0.00, -0.11, -18.69, -7.81, -36.44, -0.12, 0.09, -0.04, 0.12, -0.21, 9.66, 0.54, -0.01, 0.01, -0.84, 0.54, 0.03, 0.07, -0.84, 1.00, -0.01, -0.01, 0.04, 
43.72, 810.63, 23.91, 75.04, 0.00, 1842.76, 6045.81, -0.19, 0.00, 9.61, 0.02, -0.00, -0.11, -18.69, -7.81, -36.44, -0.12, 0.09, -0.04, 0.12, -0.21, 9.66, 0.54, -0.01, 0.01, -0.84, 0.54, 0.03, 0.07, -0.84, 1.00, -0.01, -0.01, 0.04, 
43.79, 810.63, 23.91, 75.04, 0.00, 1842.69, 6045.57, -0.19, 0.00, 9.61, 0.02, -0.00, -0.11, -18.69, -7.81, -36.44, -0.12, 0.09, -0.04, 0.13, -0.21, 9.66, 0.54, -0.01, 0.01, -0.84, 0.54, 0.03, 0.07, -0.84, 1.00, -0.01, -0.01, 0.04, 
43.85, 810.63, 23.91, 75.04, 0.00, 1842.73, 6045.69, -0.19, 0.00, 9.61, 0.02, -0.00, -0.11, -18.69, -7.81, -36.44, -0.05, -0.25, -0.00, 0.13, -0.21, 9.66, 0.54, -0.01, 0.01, -0.84, 0.54, 0.03, 0.07, -0.84, 1.00, -0.01, -0.01, 0.04, 
43.92, 810.63, 23.91, 75.05, 0.00, 1842.73, 6045.69, -0.19, 0.00, 9.61, 0.02, -0.00, -0.11, -18.69, -7.81, -36.44, -0.05, -0.25, -0.00, 0.13, -0.21, 9.66, 0.54, -0.01, 0.01, -0.84, 0.54, 0.03, 0.07, -0.84, 1.00, -0.01, -0.01, 0.04, 
43.99, 810.63, 23.91, 75.05, 0.00, 1842.73, 6045.70, -0.19, 0.00, 9.61, 0.02, -0.00, -0.11, -18.69, -7.81, -36.44, -0.05, -0.25, -0.00, 0.13, -0.21, 9.66, 0.54, -0.01, 0.01, -0.84, 0.54, 0.03, 0.07, -0.84, 1.00, -0.01, -0.01, 0.04, 
44.07, 810.63, 23.92, 75.05, 0.00, 1842.78, 6045.85, -0.19, 0.00, 9.61, 0.02, -0.00, -0.11, -18.69, -7.81, -36.44, -0.05, -0.25, -0.00, 0.13, -0.21, 9.66, 0.54, -0.01, 0.01, -0.84, 0.54, 0.03, 0.07, -0.84, 1.00, -0.01, -0.01, 0.04, 
44.13, 810.62, 23.92, 75.05, 0.00, 1842.81, 6045.97, -0.19, 0.00, 9.61, 0.02, -0.00, -0.11, -18.69, -7.81, -36.44, -0.05, -0.25, -0.00, 0.13, -0.21, 9.66, 0.54, -0.01, 0.01, -0.84, 0.54, 0.03, 0.07, -0.84, 1.00, -0.01, -0.01, 0.04, 
44.21, 810.62, 23.91, 75.05, 0.00, 1842.87, 6046.17, -0.19, 0.00, 9.61, 0.02, -0.00, -0.11, -18.69, -7.81, -36.44, -0.05, -0.25, -0.00, 0.13, -0.21, 9.66, 0.54, -0.01, 0.01, -0.84, 0.54, 0.03, 0.07, -0.84, 1.00, -0.01, -0.01, 0.04, 
44.28, 810.63, 23.91, 75.05, 0.00, 1842.77, 6045.83, 0.11, -0.19, 9.65, 0.02, -0.00, -0.11, -18.69, -7.81, -36.44, -0.05, -0.25, -0.00, 0.13, -0.21, 9.66, 0.54, -0.01, 0.01, -0.84, 0.54, 0.03, 0.07, -0.84, 1.00, -0.01, -0.01, 0.04, 
44.35, 810.63, 23.92, 75.05, 0.00, 1842.73, 6045.72, 0.11, -0.19, 9.65, 0.02, -0.00, -0.11, -18.69, -7.81, -36.44, -0.05, -0.25, -0.00, 0.13, -0.21, 9.66, 0.54, -0.01, 0.01, -0.84, 0.54, 0.03, 0.07, -0.84, 1.00, -0.01, -0.01, 0.04, 
44.41, 810.63, 23.92, 75.05, 0.00, 1842.70, 6045.60, 0.11, -0.19, 9.65, 0.02, -0.00, -0.11, -18.69, -7.81, -36.44, -0.05, -0.25, -0.00, 0.13, -0.21, 9.66, 0.54, -0.01, 0.01, -0.84, 0.54, 0.03, 0.07, -0.84, 1.00, -0.01, -0.01, 0.04, 
44.49, 810.64, 23.92, 75.05, 0.00, 1842.58, 6045.22, 0.11, -0.19, 9.65, 0.02, -0.00, -0.11, -18.69, -7.81, -36.44, -0.05, -0.25, -0.00, 0.13, -0.21, 9.66, 0.54, -0.01, 0.01, -0.84, 0.54, 0.03, 0.07, -0.84, 1.00, -0.01, -0.01, 0.04, 
44.55, 810.64, 23.92, 75.05, 0.00, 1842.59, 6045.23, 0.11, -0.19, 9.65, 0.02, -0.00, -0.11, -18.69, -7.81, -36.44, -0.05, -0.25, -0.00, 0.13, -0.21, 9.66, 0.54, -0.01, 0.01, -0.84, 0.54, 0.03, 0.07, -0.84, 1.00, -0.01, -0.01, 0.04, 
44.62, 810.64, 23.92, 75.06, 0.00, 1842.60, 6045.28, 0.11, -0.19, 9.65, 0.01, -0.00, -0.06, -18.69, -7.81, -36.44, -0.05, -0.25, -0.00, 0.13, -0.21, 9.66, 0.54, -0.01, 0.01, -0.84, 0.54, 0.03, 0.07, -0.84, 1.00, -0.01, -0.01, 0.04, 
44.70, 810.64, 23.92, 75.06, 0.00, 1842.64, 6045.40, 0.11, -0.19, 9.65, 0.01, -0.00, -0.06, -19.06, -7.75, -38.06, -0.05, -0.25, -0.00, 0.13, -0.21, 9.66, 0.54, -0.01, 0.01, -0.84, 0.54, 0.03, 0.07, -0.84, 1.00, -0.01, -0.01, 0.04, 
44.76, 810.64, 23.92, 75.06, 0.00, 1842.59, 6045.24, 0.11, -0.19, 9.65, 0.01, -0.00, -0.06, -19.06, -7.75, -38.06, -0.05, -0.25, -0.00, 0.13, -0.20, 9.66, 0.54, -0.01, 0.01, -0.84, 0.54, 0.03, 0.07, -0.84, 1.00, -0.01, -0.01, 0.04, 
44.84, 810.64, 23.92, 75.06, 0.00, 1842.59, 6045.26, 0.11, -0.19, 9.65, 0.01, -0.00, -0.06, -19.06, -7.75, -38.06, -0.05, -0.25, -0.00, 0.13, -0.20, 9.66, 0.54, -0.01, 0.01, -0.84, 0.54, 0.03, 0.07, -0.84, 1.00, -0.01, -0.01, 0.04, 
44.91, 810.64, 23.92, 75.06, 0.00, 1842.66, 6045.48, 0.11, -0.19, 9.65, 0.01, -0.00, -0.06, -19.06, -7.75, -38.06, 0.26, -0.08, -0.00, 0.13, -0.20, 9.66, 0.54, -0.01, 0.01, -0.84, 0.54, 0.03, 0.07, -0.84, 1.00, -0.01, -0.01, 0.04, 
44.98, 810.62, 23.92, 75.06, 0.00, 1842.78, 6045.87, -0.57, -0.34, 9.65, 0.01, -0.00, -0.06, -19.06, -7.75, -38.06, 0.26, -0.08, -0.00, 0.13, -0.20, 9.66, 0.54, -0.01, 0.01, -0.84, 0.54, 0.03, 0.07, -0.84, 1.00, -0.01, -0.01, 0.04, 
45.04, 810.63, 23.92, 75.06, 0.00, 1842.76, 6045.80, -0.57, -0.34, 9.65, 0.01, -0.00, -0.06, -19.06, -7.75, -38.06, 0.26, -0.08, -0.00, 0.13, -0.20, 9.66, 0.54, -0.01, 0.01, -0.84, 0.54, 0.03, 0.07, -0.84, 1.00, -0.01, -0.01, 0.04, 
45.12, 810.62, 23.92, 75.06, 0.00, 1842.82, 6046.01, -0.57, -0.34, 9.65, 0.01, -0.00, -0.06, -19.06, -7.75, -38.06, 0.26, -0.08, -0.00, 0.13, -0.20, 9.66, 0.54, -0.01, 0.01, -0.84, 0.54, 0.03, 0.07, -0.84, 1.00, -0.01, -0.01, 0.04, 
45.18, 810.62, 23.92, 75.06, 0.00, 1842.87, 6046.16, -0.57, -0.34, 9.65, 0.01, -0.00, -0.06, -19.06, -7.75, -38.06, 0.26, -0.08, -0.00, 0.13, -0.20, 9.66, 0.54, -0.01, 0.01, -0.84, 0.54, 0.03, 0.07, -0.84, 1.00, -0.01, -0.01, 0.04, 
45.26, 810.62, 23.93, 75.07, 0.00, 1842.82, 6046.01, -0.57, -0.34, 9.65, 0.01, -0.00, -0.06, -19.06, -7.75, -38.06, 0.26, -0.08, -0.00, 0.13, -0.20, 9.66, 0.54, -0.01, 0.01, -0.84, 0.54, 0.03, 0.07, -0.84, 1.00, -0.01, -0.01, 0.04, 
45.33, 810.61, 23.93, 75.07, 0.00, 1842.95, 6046.43, -0.57, -0.34, 9.65, 0.01, -0.00, -0.06, -19.06, -7.75, -38.06, 0.20, -0.10, -0.08, 0.13, -0.20, 9.66, 0.54, -0.01, 0.01, -0.84, 0.54, 0.03, 0.07, -0.84, 1.00, -0.01, -0.01, 0.04, 
45.39, 810.60, 23.93, 75.07, 0.00, 1843.07, 6046.81, 0.46, -0.69, 9.58, 0.01, -0.00, -0.06, -19.06, -7.75, -38.06, 0.20, -0.10, -0.08, 0.13, -0.20, 9.66, 0.54, -0.01, 0.01, -0.84, 0.54, 0.03, 0.07, -0.84, 1.00, -0.01, -0.01, 0.04, 
45.47, 810.59, 23.93, 75.07, 0.00, 1843.15, 6047.08, 0.46, -0.69, 9.58, 0.01, -0.00, -0.06, -19.06, -7.75, -38.06, 0.20, -0.10, -0.08, 0.13, -0.20, 9.66, 0.54, -0.01, 0.01, -0.84, 0.54, 0.02, 0.07, -0.84, 1.00, -0.01, -0.01, 0.04, 
45.54, 810.57, 23.93, 75.07, 0.00, 1843.33, 6047.68, 0.46, -0.69, 9.58, 0.01, -0.00, -0.06, -19.06, -7.75, -38.06, -0.95, 0.03, 0.00, 0.13, -0.20, 9.66, 0.54, -0.01, 0.01, -0.84, 0.54, 0.02, 0.07, -0.84, 1.00, -0.01, -0.01, 0.04, 
45.61, 810.54, 23.93, 75.07, 0.00, 1843.58, 6048.49, -0.46, 0.08, 9.65, 0.01, -0.00, -0.06, -19.06, -7.75, -38.06, -0.95, 0.03, 0.00, 0.13, -0.20, 9.66, 0.54, -0.01, 0.01, -0.84, 0.54, 0.02, 0.07, -0.84, 1.00, -0.01, -0.01, 0.04, 
45.67, 810.53, 23.93, 75.07, 0.00, 1843.76, 6049.08, -0.46, 0.08, 9.65, 0.01, -0.00, -0.06, -19.06, -7.75, -38.06, -0.95, 0.03, 0.00, 0.13, -0.20, 9.66, 0.54, -0.01, 0.01, -0.84, 0.54, 0.02, 0.07, -0.84, 1.00, -0.01, -0.01, 0.04, 
45.75, 810.53, 23.93, 75.07, 0.00, 1843.74, 6049.01, 0.61, 0.15, 9.69, 0.01, -0.00, -0.06, -19.06, -7.75, -38.06, -0.95, 0.03, 0.00, 0.13, -0.20, 9.66, 0.54, -0.01, 0.01, -0.84, 0.54, 0.02, 0.07, -0.84, 1.00, -0.01, -0.01, 0.04, 
45.83, 810.52, 23.93, 75.07, 0.00, 1843.83, 6049.32, 0.61, 0.15, 9.69, 0.01, -0.00, -0.06, -19.06, -7.75, -38.06, -0.95, 0.03, 0.00, 0.29, -0.40, 9.64, 0.54, -0.01, 0.01, -0.84, 0.54, 0.02, 0.07, -0.84, 1.00, -0.01, -0.01, 0.04, 
45.94, 810.54, 23.93, 75.07, 0.00, 1843.64, 6048.69, 0.61, 0.15, 9.69, 0.01, -0.00, -0.06, -19.06, -7.75, -38.06, -0.14, -0.39, 0.09, 0.29, -0.40, 9.64, 0.54, -0.01, 0.01, -0.84, 0.54, 0.02, 0.07, -0.84, 1.00, -0.01, -0.01, 0.04, 
46.00, 810.57, 23.92, 75.06, 0.00, 1843.32, 6047.64, 0.08, -0.54, 9.12, 0.01, -0.00, -0.06, -19.06, -7.75, -38.06, -0.14, -0.39, 0.09, 0.29, -0.40, 9.64, 0.54, -0.01, 0.01, -0.84, 0.54, 0.02, 0.07, -0.84, 1.00, -0.01, -0.01, 0.04, 
46.07, 810.59, 23.92, 75.06, 0.00, 1843.14, 6047.06, 0.08, -0.54, 9.12, 0.01, -0.00, -0.06, -19.06, -7.75, -38.06, 0.20, -0.14, -0.22, 0.29, -0.40, 9.64, 0.54, -0.01, 0.01, -0.84, 0.54, 0.02, 0.07, -0.84, 1.00, -0.01, -0.01, 0.04, 
46.14, 810.60, 23.92, 75.06, 0.00, 1843.08, 6046.84, 0.08, -0.54, 9.12, 0.01, -0.00, -0.06, -19.06, -7.75, -38.06, 0.20, -0.14, -0.22, 0.29, -0.40, 9.64, 0.54, -0.01, 0.01, -0.84, 0.54, 0.02, 0.07, -0.84, 1.00, -0.01, -0.01, 0.04, 
46.21, 810.61, 23.93, 75.07, 0.00, 1842.91, 6046.28, 0.54, -1.15, 9.31, 0.01, -0.00, -0.06, -19.06, -7.75, -38.06, 0.20, -0.14, -0.22, 0.29, -0.40, 9.64, 0.54, -0.01, 0.01, -0.84, 0.54, 0.02, 0.07, -0.84, 1.00, -0.01, -0.01, 0.04, 
46.28, 810.61, 23.93, 75.07, 0.00, 1842.89, 6046.24, 0.42, -0.69, 9.85, 0.01, -0.00, -0.06, -19.06, -7.75, -38.06, 0.20, -0.14, -0.22, 0.29, -0.40, 9.64, 0.54, -0.01, 0.01, -0.84, 0.54, 0.02, 0.07, -0.84, 1.00, -0.01, -0.01, 0.04, 
46.35, 810.60, 23.93, 75.07, 0.00, 1843.02, 6046.66, 0.42, -0.69, 9.85, 0.01, -0.00, -0.06, -19.06, -7.75, -38.06, 0.73, -0.36, -0.20, 0.29, -0.40, 9.64, 0.54, -0.01, 0.01, -0.84, 0.54, 0.02, 0.07, -0.84, 1.00, -0.01, -0.01, 0.04, 
46.42, 810.59, 23.93, 75.07, 0.00, 1843.12, 6046.98, 2.30, -0.54, 9.50, 0.01, -0.00, -0.06, -19.06, -7.75, -38.06, 0.73, -0.36, -0.20, 0.29, -0.40, 9.64, 0.54, -0.01, 0.01, -0.84, 0.54, 0.02, 0.07, -0.84, 1.00, -0.01, -0.01, 0.04, 
46.49, 810.59, 23.93, 75.08, 0.00, 1843.13, 6047.02, 2.30, -0.54, 9.50, 0.01, -0.00, -0.06, -19.06, -7.75, -38.06, 0.73, -0.36, -0.20, 0.29, -0.40, 9.64, 0.54, -0.01, 0.01, -0.84, 0.54, 0.02, 0.07, -0.84, 1.00, -0.01, -0.01, 0.04, 
